OOIBase32 Version 1.0.0.8 Data File
++++++++++++++++++++++++++++++++++++
Date: Monday, January 14, 1980, 01:36:04
User: Valued Ocean Optics Customer
Spectrometer Serial Number: Unknown
Spectrometer Channel: Master
Integration Time (msec): 3
Spectra Averaged: 10
Boxcar Smoothing: 0
Correct for Electrical Dark: Disabled
Time Normalized: Disabled
Dual-beam Reference: Disabled
Reference Channel: Master
>>>>>Begin Spectral Data<<<<<
179.00	0.0000
179.38	0.0000
179.75	81.2000
180.13	81.4000
180.51	82.1000
180.88	82.1000
181.26	82.9000
181.64	83.2000
182.02	82.9000
182.39	82.8000
182.77	81.4000
183.15	83.5000
183.52	81.2000
183.90	81.8000
184.28	83.6000
184.65	83.7000
185.03	81.6000
185.41	82.6000
185.78	83.7000
186.16	83.8000
186.53	83.4000
186.91	83.7000
187.29	82.3000
187.66	81.8000
188.04	82.9000
188.42	83.7000
188.79	83.7000
189.17	82.9000
189.55	83.3000
189.92	82.6000
190.30	82.7000
190.67	84.4000
191.05	85.1000
191.43	83.3000
191.80	85.0000
192.18	84.6000
192.56	84.5000
192.93	84.2000
193.31	84.0000
193.68	83.9000
194.06	83.2000
194.44	84.7000
194.81	83.6000
195.19	82.4000
195.56	84.0000
195.94	83.5000
196.32	83.9000
196.69	83.7000
197.07	84.0000
197.44	83.9000
197.82	85.5000
198.19	85.1000
198.57	84.9000
198.95	84.8000
199.32	83.2000
199.70	85.3000
200.07	84.1000
200.45	84.3000
200.82	85.3000
201.20	85.5000
201.57	85.1000
201.95	83.5000
202.33	84.7000
202.70	84.5000
203.08	84.2000
203.45	83.6000
203.83	84.2000
204.20	84.0000
204.58	83.4000
204.95	84.0000
205.33	84.4000
205.70	83.7000
206.08	84.9000
206.45	85.2000
206.83	84.0000
207.20	83.7000
207.58	84.7000
207.95	84.9000
208.33	85.1000
208.70	84.3000
209.08	84.4000
209.45	84.8000
209.83	84.7000
210.20	85.1000
210.58	83.8000
210.95	85.0000
211.33	84.7000
211.70	85.1000
212.08	84.2000
212.45	84.9000
212.83	85.0000
213.20	83.0000
213.58	85.3000
213.95	85.6000
214.33	84.4000
214.70	83.3000
215.07	83.7000
215.45	85.3000
215.82	84.3000
216.20	83.2000
216.57	86.1000
216.95	85.2000
217.32	85.0000
217.70	84.1000
218.07	84.9000
218.44	85.1000
218.82	84.3000
219.19	86.1000
219.57	85.2000
219.94	84.6000
220.32	84.3000
220.69	85.5000
221.06	84.7000
221.44	84.6000
221.81	84.7000
222.19	83.9000
222.56	85.1000
222.93	84.9000
223.31	84.9000
223.68	85.4000
224.06	84.5000
224.43	85.2000
224.80	84.7000
225.18	85.1000
225.55	85.5000
225.92	84.9000
226.30	85.2000
226.67	84.8000
227.05	86.3000
227.42	84.7000
227.79	85.0000
228.17	84.7000
228.54	86.3000
228.91	86.0000
229.29	84.8000
229.66	86.4000
230.03	86.0000
230.41	85.7000
230.78	84.0000
231.15	86.7000
231.53	85.5000
231.90	83.5000
232.27	84.7000
232.65	85.3000
233.02	84.6000
233.39	85.7000
233.77	86.2000
234.14	86.4000
234.51	86.3000
234.89	86.5000
235.26	85.4000
235.63	84.2000
236.01	83.6000
236.38	84.5000
236.75	86.9000
237.12	85.7000
237.50	84.7000
237.87	84.8000
238.24	84.7000
238.62	85.0000
238.99	84.7000
239.36	85.8000
239.73	85.3000
240.11	84.6000
240.48	85.4000
240.85	85.4000
241.23	84.4000
241.60	84.7000
241.97	83.8000
242.34	83.7000
242.72	85.1000
243.09	85.7000
243.46	84.6000
243.83	84.9000
244.21	84.7000
244.58	84.7000
244.95	85.9000
245.32	85.8000
245.70	84.8000
246.07	84.0000
246.44	84.6000
246.81	85.5000
247.18	86.0000
247.56	85.6000
247.93	85.1000
248.30	83.3000
248.67	85.3000
249.04	84.2000
249.42	84.6000
249.79	86.0000
250.16	84.3000
250.53	84.3000
250.90	86.4000
251.28	84.4000
251.65	84.0000
252.02	84.6000
252.39	84.8000
252.76	85.8000
253.14	85.5000
253.51	85.4000
253.88	86.1000
254.25	85.9000
254.62	85.5000
254.99	86.9000
255.37	85.9000
255.74	85.8000
256.11	84.9000
256.48	85.4000
256.85	85.1000
257.22	84.0000
257.59	85.9000
257.97	86.3000
258.34	85.5000
258.71	86.5000
259.08	86.4000
259.45	86.5000
259.82	86.1000
260.19	88.5000
260.56	85.1000
260.94	85.6000
261.31	86.9000
261.68	88.5000
262.05	88.6000
262.42	86.4000
262.79	88.1000
263.16	89.7000
263.53	87.8000
263.90	88.7000
264.28	89.2000
264.65	91.6000
265.02	89.4000
265.39	91.5000
265.76	90.7000
266.13	93.2000
266.50	91.8000
266.87	92.4000
267.24	92.3000
267.61	91.0000
267.98	91.3000
268.35	92.8000
268.72	93.4000
269.09	93.5000
269.46	92.7000
269.84	94.3000
270.21	94.9000
270.58	93.7000
270.95	94.7000
271.32	95.1000
271.69	95.6000
272.06	94.5000
272.43	96.6000
272.80	95.6000
273.17	96.7000
273.54	95.2000
273.91	96.0000
274.28	97.5000
274.65	97.8000
275.02	96.0000
275.39	98.0000
275.76	97.6000
276.13	97.5000
276.50	97.9000
276.87	98.8000
277.24	97.9000
277.61	97.7000
277.98	98.2000
278.35	98.1000
278.72	99.3000
279.09	98.4000
279.46	99.3000
279.83	98.8000
280.20	98.4000
280.57	100.0000
280.94	99.6000
281.31	98.6000
281.67	100.2000
282.04	101.6000
282.41	101.1000
282.78	99.4000
283.15	102.2000
283.52	103.3000
283.89	102.8000
284.26	100.4000
284.63	101.9000
285.00	102.8000
285.37	103.4000
285.74	103.4000
286.11	104.7000
286.48	104.3000
286.85	104.8000
287.21	103.1000
287.58	105.3000
287.95	105.1000
288.32	105.6000
288.69	105.5000
289.06	107.9000
289.43	107.1000
289.80	107.0000
290.17	107.2000
290.54	104.9000
290.90	107.1000
291.27	107.7000
291.64	108.1000
292.01	106.7000
292.38	107.9000
292.75	108.4000
293.12	107.6000
293.48	107.3000
293.85	107.6000
294.22	109.2000
294.59	111.3000
294.96	107.7000
295.33	108.3000
295.70	109.0000
296.06	106.2000
296.43	108.6000
296.80	108.6000
297.17	110.3000
297.54	110.8000
297.91	109.2000
298.27	111.1000
298.64	114.2000
299.01	109.4000
299.38	112.7000
299.75	110.7000
300.11	113.6000
300.48	111.4000
300.85	113.9000
301.22	112.3000
301.59	111.6000
301.95	112.2000
302.32	112.4000
302.69	110.7000
303.06	112.5000
303.43	113.1000
303.79	113.5000
304.16	115.5000
304.53	115.6000
304.90	114.2000
305.26	117.8000
305.63	116.4000
306.00	116.5000
306.37	116.2000
306.73	116.1000
307.10	117.5000
307.47	116.5000
307.84	115.7000
308.20	118.2000
308.57	116.2000
308.94	117.7000
309.31	117.4000
309.67	117.7000
310.04	117.8000
310.41	118.5000
310.77	119.1000
311.14	116.5000
311.51	117.0000
311.88	120.0000
312.24	119.7000
312.61	118.0000
312.98	118.2000
313.34	119.9000
313.71	121.6000
314.08	121.5000
314.44	123.4000
314.81	119.6000
315.18	121.4000
315.55	122.2000
315.91	120.3000
316.28	122.1000
316.65	120.7000
317.01	121.0000
317.38	123.3000
317.75	119.7000
318.11	122.9000
318.48	121.2000
318.84	122.1000
319.21	122.0000
319.58	123.0000
319.94	124.3000
320.31	124.3000
320.68	123.6000
321.04	126.9000
321.41	126.2000
321.78	126.7000
322.14	125.9000
322.51	127.6000
322.87	126.7000
323.24	127.0000
323.61	126.4000
323.97	125.7000
324.34	126.6000
324.70	127.2000
325.07	125.7000
325.44	128.6000
325.80	129.4000
326.17	128.2000
326.53	129.8000
326.90	128.7000
327.27	130.2000
327.63	129.9000
328.00	131.7000
328.36	131.5000
328.73	134.2000
329.09	129.5000
329.46	132.0000
329.83	132.8000
330.19	131.0000
330.56	132.7000
330.92	133.4000
331.29	132.5000
331.65	136.0000
332.02	132.7000
332.38	134.0000
332.75	133.8000
333.11	136.7000
333.48	137.6000
333.84	135.8000
334.21	141.0000
334.58	139.2000
334.94	135.7000
335.31	139.0000
335.67	137.1000
336.04	139.4000
336.40	136.6000
336.77	138.8000
337.13	138.6000
337.50	138.6000
337.86	141.7000
338.22	143.0000
338.59	140.8000
338.95	141.2000
339.32	142.1000
339.68	141.3000
340.05	140.6000
340.41	142.9000
340.78	142.3000
341.14	141.1000
341.51	144.6000
341.87	145.8000
342.24	148.4000
342.60	147.0000
342.96	150.1000
343.33	150.4000
343.69	150.1000
344.06	150.8000
344.42	153.0000
344.79	150.9000
345.15	154.3000
345.51	155.5000
345.88	153.5000
346.24	155.6000
346.61	156.6000
346.97	157.3000
347.34	158.0000
347.70	159.9000
348.06	159.8000
348.43	163.4000
348.79	162.2000
349.16	162.5000
349.52	163.5000
349.88	164.3000
350.25	166.1000
350.61	165.5000
350.97	166.4000
351.34	164.4000
351.70	171.6000
352.07	167.1000
352.43	167.4000
352.79	170.2000
353.16	172.4000
353.52	170.9000
353.88	170.9000
354.25	175.1000
354.61	174.0000
354.97	174.0000
355.34	177.8000
355.70	175.9000
356.06	177.8000
356.43	182.5000
356.79	179.5000
357.15	183.9000
357.52	180.4000
357.88	182.0000
358.24	187.0000
358.60	184.9000
358.97	186.6000
359.33	187.6000
359.69	188.4000
360.06	192.7000
360.42	190.3000
360.78	195.9000
361.14	196.6000
361.51	196.4000
361.87	200.0000
362.23	202.1000
362.60	202.5000
362.96	203.8000
363.32	202.6000
363.68	207.0000
364.05	209.2000
364.41	210.6000
364.77	215.8000
365.13	213.4000
365.50	216.6000
365.86	222.7000
366.22	224.8000
366.58	222.0000
366.95	226.0000
367.31	222.2000
367.67	230.3000
368.03	226.3000
368.39	233.0000
368.76	232.2000
369.12	226.9000
369.48	233.0000
369.84	231.5000
370.20	240.3000
370.57	237.8000
370.93	239.9000
371.29	236.5000
371.65	243.2000
372.01	242.1000
372.38	241.0000
372.74	247.8000
373.10	239.3000
373.46	249.4000
373.82	249.9000
374.18	248.5000
374.55	249.7000
374.91	253.4000
375.27	259.8000
375.63	256.0000
375.99	251.8000
376.35	262.9000
376.71	258.0000
377.08	264.6000
377.44	269.3000
377.80	284.6000
378.16	275.7000
378.52	283.7000
378.88	287.2000
379.24	286.0000
379.60	291.5000
379.97	300.0000
380.33	299.2000
380.69	293.6000
381.05	297.3000
381.41	310.9000
381.77	299.1000
382.13	306.7000
382.49	302.3000
382.85	299.2000
383.21	315.7000
383.57	292.7000
383.94	319.7000
384.30	318.1000
384.66	315.0000
385.02	299.0000
385.38	312.0000
385.74	308.9000
386.10	317.8000
386.46	336.2000
386.82	327.3000
387.18	338.7000
387.54	337.5000
387.90	328.7000
388.26	345.3000
388.62	341.4000
388.98	325.2000
389.34	336.1000
389.70	338.2000
390.06	308.9000
390.42	320.6000
390.78	351.6000
391.14	369.4000
391.50	359.6000
391.86	374.8000
392.22	383.6000
392.58	377.0000
392.94	332.7000
393.30	350.9000
393.66	357.9000
394.02	367.3000
394.38	325.6000
394.74	349.4000
395.10	351.3000
395.46	364.3000
395.82	366.1000
396.18	349.9000
396.54	394.0000
396.90	403.6000
397.26	395.3000
397.62	385.3000
397.98	414.2000
398.34	374.4000
398.70	378.8000
399.05	343.7000
399.41	351.0000
399.77	358.4000
400.13	376.2000
400.49	387.0000
400.85	380.9000
401.21	359.2000
401.57	396.1000
401.93	372.4000
402.29	366.4000
402.65	372.2000
403.00	391.9000
403.36	393.3000
403.72	381.9000
404.08	433.6000
404.44	391.3000
404.80	408.0000
405.16	406.5000
405.52	401.9000
405.87	412.3000
406.23	404.8000
406.59	360.0000
406.95	386.8000
407.31	394.7000
407.67	397.4000
408.03	402.5000
408.38	412.0000
408.74	441.5000
409.10	441.4000
409.46	401.5000
409.82	416.1000
410.17	408.6000
410.53	396.0000
410.89	407.9000
411.25	371.2000
411.61	397.5000
411.97	427.2000
412.32	426.7000
412.68	435.9000
413.04	399.5000
413.40	368.3000
413.75	392.3000
414.11	394.3000
414.47	383.8000
414.83	439.1000
415.19	403.8000
415.54	376.6000
415.90	424.8000
416.26	414.9000
416.62	417.9000
416.97	377.2000
417.33	427.8000
417.69	425.5000
418.05	410.5000
418.40	395.1000
418.76	392.6000
419.12	434.6000
419.48	445.5000
419.83	477.9000
420.19	429.7000
420.55	435.7000
420.90	497.3000
421.26	470.8000
421.62	423.8000
421.98	466.6000
422.33	490.3000
422.69	502.7000
423.05	476.0000
423.40	417.0000
423.76	408.6000
424.12	446.2000
424.47	447.6000
424.83	414.8000
425.19	425.1000
425.54	430.1000
425.90	463.3000
426.26	478.0000
426.61	490.7000
426.97	391.8000
427.33	458.0000
427.68	447.7000
428.04	513.3000
428.40	517.0000
428.75	544.9000
429.11	476.8000
429.47	560.4000
429.82	548.0000
430.18	503.7000
430.53	480.8000
430.89	483.7000
431.25	462.5000
431.60	478.0000
431.96	463.8000
432.31	464.9000
432.67	507.5000
433.03	545.2000
433.38	488.9000
433.74	498.1000
434.09	500.5000
434.45	487.4000
434.81	469.3000
435.16	505.5000
435.52	459.8000
435.87	452.8000
436.23	451.4000
436.58	451.6000
436.94	480.3000
437.30	506.5000
437.65	516.2000
438.01	514.3000
438.36	479.9000
438.72	459.9000
439.07	447.5000
439.43	474.9000
439.78	514.8000
440.14	566.0000
440.49	496.9000
440.85	516.6000
441.20	536.3000
441.56	519.8000
441.91	559.2000
442.27	509.7000
442.62	515.3000
442.98	534.0000
443.33	516.6000
443.69	531.5000
444.04	511.4000
444.40	477.0000
444.75	529.3000
445.11	563.2000
445.46	573.7000
445.82	558.0000
446.17	516.0000
446.53	542.6000
446.88	598.9000
447.23	492.6000
447.59	497.1000
447.94	502.4000
448.30	522.2000
448.65	512.5000
449.01	543.3000
449.36	544.4000
449.72	566.3000
450.07	592.1000
450.42	550.0000
450.78	525.6000
451.13	557.0000
451.49	523.1000
451.84	517.5000
452.19	493.1000
452.55	509.1000
452.90	522.3000
453.26	578.6000
453.61	586.4000
453.96	483.4000
454.32	551.1000
454.67	528.7000
455.02	478.6000
455.38	510.1000
455.73	513.6000
456.09	575.8000
456.44	574.6000
456.79	577.2000
457.15	553.7000
457.50	547.2000
457.85	544.3000
458.21	565.0000
458.56	551.8000
458.91	536.1000
459.27	503.0000
459.62	531.4000
459.97	541.8000
460.32	557.2000
460.68	529.0000
461.03	502.2000
461.38	517.8000
461.74	570.3000
462.09	548.4000
462.44	527.2000
462.80	550.3000
463.15	553.7000
463.50	549.4000
463.85	577.4000
464.21	598.2000
464.56	622.3000
464.91	557.1000
465.26	552.1000
465.62	568.0000
465.97	592.8000
466.32	576.8000
466.67	580.9000
467.03	564.4000
467.38	566.1000
467.73	563.5000
468.08	582.7000
468.44	587.6000
468.79	565.4000
469.14	534.8000
469.49	558.3000
469.85	562.4000
470.20	613.9000
470.55	623.2000
470.90	623.2000
471.25	572.4000
471.61	616.6000
471.96	616.4000
472.31	654.0000
472.66	655.0000
473.01	662.8000
473.36	678.7000
473.72	681.5000
474.07	693.0000
474.42	691.6000
474.77	702.0000
475.12	713.2000
475.47	719.2000
475.83	721.2000
476.18	711.7000
476.53	703.5000
476.88	748.5000
477.23	750.3000
477.58	737.0000
477.93	743.7000
478.28	743.2000
478.64	762.9000
478.99	783.6000
479.34	800.2000
479.69	811.0000
480.04	818.3000
480.39	818.7000
480.74	804.1000
481.09	853.7000
481.44	850.8000
481.79	835.7000
482.15	847.4000
482.50	864.5000
482.85	861.1000
483.20	911.1000
483.55	926.8000
483.90	966.3000
484.25	1135.6000
484.60	1266.9000
484.95	1354.1000
485.30	1290.7000
485.65	1149.9000
486.00	1100.3000
486.35	992.1000
486.70	950.6000
487.05	960.8000
487.40	945.6000
487.75	942.1000
488.10	943.0000
488.45	925.7000
488.80	939.7000
489.15	954.9000
489.50	954.5000
489.85	959.0000
490.20	949.1000
490.55	963.6000
490.90	960.3000
491.25	964.0000
491.60	947.7000
491.95	945.2000
492.30	959.7000
492.65	971.9000
493.00	965.6000
493.35	967.1000
493.70	968.7000
494.05	968.2000
494.40	982.8000
494.75	997.2000
495.10	1008.7000
495.45	1016.1000
495.80	1011.4000
496.15	996.4000
496.50	969.9000
496.84	970.3000
497.19	974.8000
497.54	989.9000
497.89	992.6000
498.24	991.6000
498.59	1005.0000
498.94	987.7000
499.29	988.3000
499.64	991.9000
499.99	1000.5000
500.33	1013.7000
500.68	1019.4000
501.03	1027.2000
501.38	1018.6000
501.73	1027.1000
502.08	1029.4000
502.43	1027.3000
502.77	1029.3000
503.12	1019.0000
503.47	1014.5000
503.82	1025.3000
504.17	1026.2000
504.52	1035.5000
504.86	1024.4000
505.21	1036.0000
505.56	1030.0000
505.91	1019.3000
506.26	1019.6000
506.61	1032.2000
506.95	1041.2000
507.30	1035.5000
507.65	1041.9000
508.00	1035.0000
508.35	1028.2000
508.69	1036.0000
509.04	1041.8000
509.39	1038.8000
509.74	1039.9000
510.08	1042.9000
510.43	1048.4000
510.78	1042.5000
511.13	1041.5000
511.47	1050.6000
511.82	1059.4000
512.17	1048.9000
512.52	1061.7000
512.86	1064.2000
513.21	1059.7000
513.56	1058.7000
513.91	1057.1000
514.25	1052.0000
514.60	1058.2000
514.95	1058.9000
515.30	1061.0000
515.64	1058.5000
515.99	1073.3000
516.34	1069.6000
516.68	1074.7000
517.03	1067.6000
517.38	1074.6000
517.72	1096.9000
518.07	1084.6000
518.42	1087.5000
518.76	1090.6000
519.11	1088.2000
519.46	1087.0000
519.80	1073.2000
520.15	1082.7000
520.50	1093.6000
520.84	1089.4000
521.19	1085.1000
521.54	1094.1000
521.88	1076.5000
522.23	1099.0000
522.58	1096.3000
522.92	1102.6000
523.27	1099.7000
523.61	1101.3000
523.96	1102.5000
524.31	1110.3000
524.65	1110.4000
525.00	1108.2000
525.34	1088.6000
525.69	1099.4000
526.04	1114.9000
526.38	1115.8000
526.73	1108.0000
527.07	1121.7000
527.42	1120.3000
527.76	1133.3000
528.11	1137.2000
528.46	1123.3000
528.80	1125.5000
529.15	1118.9000
529.49	1109.3000
529.84	1127.2000
530.18	1124.4000
530.53	1134.5000
530.87	1131.6000
531.22	1126.3000
531.56	1131.5000
531.91	1144.8000
532.25	1149.5000
532.60	1154.4000
532.94	1152.2000
533.29	1151.7000
533.63	1152.8000
533.98	1150.4000
534.32	1157.4000
534.67	1163.5000
535.01	1162.3000
535.36	1135.1000
535.70	1147.4000
536.05	1143.4000
536.39	1160.9000
536.74	1146.6000
537.08	1147.5000
537.43	1152.6000
537.77	1161.0000
538.12	1174.3000
538.46	1169.8000
538.80	1171.0000
539.15	1152.3000
539.49	1173.1000
539.84	1181.9000
540.18	1178.3000
540.53	1168.8000
540.87	1176.4000
541.21	1192.2000
541.56	1188.4000
541.90	1180.5000
542.25	1171.3000
542.59	1168.0000
542.93	1189.2000
543.28	1184.1000
543.62	1193.6000
543.97	1195.2000
544.31	1192.3000
544.65	1175.7000
545.00	1185.4000
545.34	1188.6000
545.68	1190.5000
546.03	1186.0000
546.37	1223.5000
546.71	1238.7000
547.06	1238.6000
547.40	1224.8000
547.74	1224.3000
548.09	1206.6000
548.43	1189.1000
548.77	1187.2000
549.12	1185.8000
549.46	1181.0000
549.80	1186.3000
550.15	1192.5000
550.49	1199.0000
550.83	1209.3000
551.17	1226.4000
551.52	1221.5000
551.86	1222.3000
552.20	1215.6000
552.55	1227.0000
552.89	1220.7000
553.23	1218.0000
553.57	1224.8000
553.92	1221.8000
554.26	1236.5000
554.60	1234.4000
554.94	1243.3000
555.29	1244.1000
555.63	1233.7000
555.97	1231.6000
556.31	1236.1000
556.66	1239.8000
557.00	1225.5000
557.34	1227.4000
557.68	1230.0000
558.02	1228.9000
558.37	1241.7000
558.71	1247.9000
559.05	1257.2000
559.39	1273.2000
559.73	1282.5000
560.08	1276.4000
560.42	1276.6000
560.76	1268.8000
561.10	1255.2000
561.44	1253.4000
561.78	1261.1000
562.13	1270.0000
562.47	1262.6000
562.81	1284.3000
563.15	1278.7000
563.49	1282.4000
563.83	1283.8000
564.17	1277.4000
564.52	1275.1000
564.86	1279.2000
565.20	1275.7000
565.54	1279.8000
565.88	1294.5000
566.22	1307.6000
566.56	1309.7000
566.90	1330.5000
567.24	1351.9000
567.59	1365.9000
567.93	1400.4000
568.27	1426.2000
568.61	1452.7000
568.95	1454.2000
569.29	1470.7000
569.63	1507.8000
569.97	1524.3000
570.31	1524.4000
570.65	1546.8000
570.99	1549.4000
571.33	1530.9000
571.67	1516.4000
572.01	1536.5000
572.35	1585.6000
572.69	1612.0000
573.03	1612.7000
573.37	1649.2000
573.71	1654.0000
574.05	1634.0000
574.39	1607.7000
574.73	1606.8000
575.07	1597.2000
575.41	1617.2000
575.75	1624.8000
576.09	1691.5000
576.43	1743.1000
576.77	1791.6000
577.11	1779.9000
577.45	1729.4000
577.79	1665.8000
578.13	1656.4000
578.47	1635.1000
578.81	1643.2000
579.15	1618.3000
579.49	1648.8000
579.83	1757.3000
580.17	1852.8000
580.51	1934.0000
580.85	1946.8000
581.19	1856.4000
581.53	1766.5000
581.87	1676.4000
582.20	1592.4000
582.54	1552.1000
582.88	1533.8000
583.22	1561.1000
583.56	1618.2000
583.90	1684.1000
584.24	1727.2000
584.58	1697.0000
584.92	1656.3000
585.25	1614.9000
585.59	1591.2000
585.93	1604.7000
586.27	1635.1000
586.61	1612.1000
586.95	1618.7000
587.29	1593.9000
587.62	1552.8000
587.96	1520.0000
588.30	1483.7000
588.64	1460.1000
588.98	1457.4000
589.31	1440.2000
589.65	1420.9000
589.99	1393.4000
590.33	1406.4000
590.67	1399.5000
591.01	1431.9000
591.34	1491.8000
591.68	1556.9000
592.02	1601.0000
592.36	1596.5000
592.69	1554.8000
593.03	1520.5000
593.37	1509.8000
593.71	1515.1000
594.04	1532.9000
594.38	1512.8000
594.72	1494.6000
595.06	1454.8000
595.39	1444.0000
595.73	1435.0000
596.07	1461.7000
596.41	1460.4000
596.74	1450.0000
597.08	1458.2000
597.42	1499.9000
597.76	1515.3000
598.09	1537.7000
598.43	1516.6000
598.77	1534.8000
599.10	1550.8000
599.44	1538.7000
599.78	1529.3000
600.11	1527.3000
600.45	1516.8000
600.79	1481.8000
601.12	1475.6000
601.46	1477.9000
601.80	1512.3000
602.13	1514.9000
602.47	1536.8000
602.81	1514.3000
603.14	1489.6000
603.48	1475.8000
603.82	1471.6000
604.15	1462.2000
604.49	1474.1000
604.82	1470.5000
605.16	1464.0000
605.50	1439.2000
605.83	1461.9000
606.17	1467.1000
606.50	1469.5000
606.84	1456.8000
607.18	1447.7000
607.51	1427.3000
607.85	1420.7000
608.18	1415.5000
608.52	1430.8000
608.86	1435.7000
609.19	1445.5000
609.53	1419.6000
609.86	1425.9000
610.20	1428.8000
610.53	1409.9000
610.87	1380.0000
611.20	1407.2000
611.54	1371.3000
611.87	1372.2000
612.21	1382.2000
612.54	1364.1000
612.88	1370.5000
613.21	1387.5000
613.55	1398.5000
613.88	1406.2000
614.22	1414.9000
614.55	1394.0000
614.89	1381.1000
615.22	1357.6000
615.56	1346.7000
615.89	1335.6000
616.23	1328.9000
616.56	1308.3000
616.90	1320.2000
617.23	1298.9000
617.57	1302.6000
617.90	1280.7000
618.24	1283.1000
618.57	1288.3000
618.90	1285.7000
619.24	1282.0000
619.57	1258.9000
619.91	1257.5000
620.24	1211.1000
620.58	1237.7000
620.91	1261.9000
621.24	1263.6000
621.58	1278.6000
621.91	1275.5000
622.25	1283.4000
622.58	1274.6000
622.91	1277.4000
623.25	1252.8000
623.58	1256.3000
623.91	1244.5000
624.25	1234.0000
624.58	1229.0000
624.92	1216.5000
625.25	1212.8000
625.58	1207.1000
625.92	1215.0000
626.25	1209.6000
626.58	1213.8000
626.92	1190.1000
627.25	1190.6000
627.58	1175.6000
627.91	1191.5000
628.25	1200.7000
628.58	1198.3000
628.91	1185.8000
629.25	1180.2000
629.58	1171.2000
629.91	1164.9000
630.25	1167.5000
630.58	1157.2000
630.91	1146.9000
631.24	1139.3000
631.58	1131.2000
631.91	1130.1000
632.24	1113.7000
632.57	1113.9000
632.91	1114.5000
633.24	1106.2000
633.57	1110.1000
633.90	1106.3000
634.24	1103.6000
634.57	1107.6000
634.90	1120.2000
635.23	1108.5000
635.56	1111.2000
635.90	1109.3000
636.23	1111.1000
636.56	1105.8000
636.89	1116.9000
637.22	1112.5000
637.56	1105.5000
637.89	1089.8000
638.22	1090.4000
638.55	1085.5000
638.88	1066.7000
639.21	1080.2000
639.55	1070.9000
639.88	1070.5000
640.21	1071.8000
640.54	1069.6000
640.87	1062.4000
641.20	1056.1000
641.53	1058.8000
641.87	1060.8000
642.20	1058.0000
642.53	1052.1000
642.86	1064.2000
643.19	1058.3000
643.52	1057.7000
643.85	1048.8000
644.18	1053.7000
644.51	1050.1000
644.84	1046.5000
645.18	1035.0000
645.51	1037.5000
645.84	1039.1000
646.17	1028.0000
646.50	1032.2000
646.83	1045.1000
647.16	1042.5000
647.49	1057.5000
647.82	1066.3000
648.15	1066.5000
648.48	1066.4000
648.81	1057.7000
649.14	1043.2000
649.47	1044.5000
649.80	1039.4000
650.13	1037.6000
650.46	1052.6000
650.79	1050.3000
651.12	1052.2000
651.45	1048.8000
651.78	1036.2000
652.11	1045.2000
652.44	1039.7000
652.77	1031.1000
653.10	1030.2000
653.43	1030.1000
653.76	1032.0000
654.09	1100.9000
654.42	1834.2000
654.75	2818.8999
655.08	3338.2000
655.41	3416.3000
655.74	2712.5000
656.07	2226.7000
656.39	1883.3000
656.72	1601.8000
657.05	1346.2000
657.38	1184.0000
657.71	1086.0000
658.04	1041.1000
658.37	1027.6000
658.70	1011.5000
659.03	1004.4000
659.36	1003.5000
659.68	998.4000
660.01	992.9000
660.34	991.0000
660.67	986.1000
661.00	993.6000
661.33	981.2000
661.66	972.1000
661.98	981.4000
662.31	977.9000
662.64	970.8000
662.97	978.7000
663.30	973.7000
663.63	979.8000
663.95	977.3000
664.28	971.0000
664.61	968.3000
664.94	969.6000
665.27	968.9000
665.59	962.8000
665.92	965.2000
666.25	953.7000
666.58	947.9000
666.91	968.6000
667.23	952.4000
667.56	958.5000
667.89	964.7000
668.22	954.7000
668.54	957.1000
668.87	960.7000
669.20	949.8000
669.53	956.1000
669.85	961.8000
670.18	962.7000
670.51	961.1000
670.83	972.1000
671.16	981.8000
671.49	983.8000
671.82	978.0000
672.14	960.3000
672.47	948.5000
672.80	947.1000
673.12	953.1000
673.45	954.1000
673.78	935.5000
674.10	945.9000
674.43	934.8000
674.76	932.5000
675.08	938.6000
675.41	928.7000
675.74	932.1000
676.06	927.0000
676.39	923.0000
676.72	921.3000
677.04	934.0000
677.37	935.3000
677.69	924.3000
678.02	922.6000
678.35	920.4000
678.67	915.6000
679.00	936.7000
679.32	942.4000
679.65	922.7000
679.98	919.8000
680.30	915.9000
680.63	919.1000
680.95	920.9000
681.28	912.4000
681.60	894.4000
681.93	895.7000
682.26	895.6000
682.58	893.6000
682.91	901.1000
683.23	903.4000
683.56	911.1000
683.88	916.9000
684.21	915.7000
684.53	926.3000
684.86	929.4000
685.18	916.5000
685.51	912.8000
685.83	900.1000
686.16	892.8000
686.48	887.7000
686.81	891.4000
687.13	888.7000
687.46	874.6000
687.78	878.3000
688.11	859.5000
688.43	863.2000
688.76	863.9000
689.08	861.8000
689.41	858.8000
689.73	853.6000
690.05	861.3000
690.38	862.0000
690.70	869.2000
691.03	862.0000
691.35	858.9000
691.68	844.5000
692.00	853.1000
692.32	858.4000
692.65	853.4000
692.97	848.0000
693.29	834.4000
693.62	824.0000
693.94	832.8000
694.27	829.2000
694.59	815.8000
694.91	825.8000
695.24	818.0000
695.56	808.7000
695.88	820.5000
696.21	821.0000
696.53	821.9000
696.85	830.6000
697.18	827.9000
697.50	812.0000
697.82	810.2000
698.15	801.3000
698.47	797.3000
698.79	792.3000
699.12	787.6000
699.44	775.0000
699.76	774.8000
700.09	775.1000
700.41	780.2000
700.73	768.2000
701.05	777.9000
701.38	773.7000
701.70	783.8000
702.02	779.6000
702.34	767.6000
702.67	772.4000
702.99	767.8000
703.31	764.7000
703.63	764.6000
703.96	763.1000
704.28	756.5000
704.60	741.5000
704.92	748.2000
705.25	749.4000
705.57	761.4000
705.89	766.8000
706.21	781.3000
706.53	789.0000
706.86	789.9000
707.18	785.1000
707.50	785.8000
707.82	768.4000
708.14	768.8000
708.46	767.3000
708.79	754.6000
709.11	756.5000
709.43	747.8000
709.75	745.2000
710.07	746.0000
710.39	746.2000
710.71	741.7000
711.04	731.5000
711.36	723.7000
711.68	728.4000
712.00	732.2000
712.32	735.9000
712.64	736.1000
712.96	739.8000
713.28	731.3000
713.60	741.7000
713.92	731.1000
714.24	737.1000
714.57	730.2000
714.89	722.8000
715.21	716.7000
715.53	708.0000
715.85	702.7000
716.17	706.3000
716.49	700.4000
716.81	699.6000
717.13	702.7000
717.45	699.4000
717.77	705.5000
718.09	707.3000
718.41	705.3000
718.73	700.0000
719.05	696.4000
719.37	678.0000
719.69	683.0000
720.01	693.1000
720.33	686.0000
720.65	685.2000
720.97	690.0000
721.29	682.2000
721.61	687.7000
721.93	679.9000
722.25	668.9000
722.57	668.2000
722.89	672.2000
723.21	670.3000
723.52	666.6000
723.84	657.4000
724.16	670.5000
724.48	673.1000
724.80	675.9000
725.12	669.6000
725.44	666.2000
725.76	663.0000
726.08	666.6000
726.40	655.7000
726.72	655.5000
727.03	659.9000
727.35	649.5000
727.67	651.7000
727.99	655.0000
728.31	652.3000
728.63	652.5000
728.95	661.3000
729.26	657.1000
729.58	658.9000
729.90	658.7000
730.22	656.8000
730.54	662.6000
730.86	666.9000
731.17	668.2000
731.49	653.3000
731.81	651.4000
732.13	649.3000
732.45	640.6000
732.76	638.2000
733.08	644.6000
733.40	646.9000
733.72	648.3000
734.03	637.9000
734.35	638.2000
734.67	642.2000
734.99	634.6000
735.30	632.7000
735.62	630.8000
735.94	634.0000
736.26	626.5000
736.57	620.7000
736.89	625.4000
737.21	604.1000
737.53	596.8000
737.84	596.9000
738.16	598.5000
738.48	604.5000
738.79	611.9000
739.11	606.7000
739.43	603.1000
739.74	594.1000
740.06	581.4000
740.38	571.0000
740.69	562.3000
741.01	558.7000
741.33	557.1000
741.64	561.2000
741.96	559.3000
742.28	557.6000
742.59	547.5000
742.91	548.7000
743.23	538.1000
743.54	542.0000
743.86	540.3000
744.17	535.5000
744.49	538.5000
744.81	533.8000
745.12	532.7000
745.44	528.4000
745.75	530.2000
746.07	525.9000
746.38	524.6000
746.70	528.8000
747.02	531.4000
747.33	525.4000
747.65	519.4000
747.96	520.4000
748.28	521.1000
748.59	524.3000
748.91	525.6000
749.22	536.8000
749.54	531.1000
749.85	529.8000
750.17	523.1000
750.48	519.4000
750.80	515.4000
751.11	516.1000
751.43	517.6000
751.74	520.3000
752.06	516.8000
752.37	512.7000
752.69	516.7000
753.00	517.5000
753.32	513.4000
753.63	510.3000
753.95	504.1000
754.26	502.6000
754.58	505.3000
754.89	509.2000
755.20	508.7000
755.52	520.7000
755.83	519.1000
756.15	525.3000
756.46	534.2000
756.78	542.7000
757.09	541.3000
757.40	533.5000
757.72	531.5000
758.03	519.7000
758.34	516.5000
758.66	517.5000
758.97	519.7000
759.29	518.6000
759.60	519.9000
759.91	515.2000
760.23	518.8000
760.54	518.0000
760.85	511.9000
761.17	502.8000
761.48	489.9000
761.79	486.1000
762.11	487.5000
762.42	490.2000
762.73	496.6000
763.05	493.0000
763.36	500.4000
763.67	499.6000
763.98	502.4000
764.30	496.1000
764.61	500.9000
764.92	494.2000
765.23	486.0000
765.55	470.0000
765.86	463.6000
766.17	463.0000
766.48	457.7000
766.80	447.9000
767.11	458.7000
767.42	456.1000
767.73	459.7000
768.05	472.3000
768.36	474.5000
768.67	475.6000
768.98	464.3000
769.29	468.3000
769.61	462.0000
769.92	457.7000
770.23	460.6000
770.54	454.6000
770.85	454.5000
771.17	454.9000
771.48	447.4000
771.79	445.0000
772.10	438.2000
772.41	439.4000
772.72	431.0000
773.03	428.3000
773.35	423.5000
773.66	422.2000
773.97	425.9000
774.28	419.4000
774.59	411.1000
774.90	415.6000
775.21	414.4000
775.52	408.0000
775.83	409.6000
776.15	404.2000
776.46	403.4000
776.77	395.6000
777.08	397.3000
777.39	399.6000
777.70	398.3000
778.01	402.5000
778.32	407.5000
778.63	409.5000
778.94	405.7000
779.25	399.3000
779.56	396.2000
779.87	397.5000
780.18	397.1000
780.49	404.8000
780.80	407.7000
781.11	399.3000
781.42	396.0000
781.73	395.2000
782.04	388.8000
782.35	390.0000
782.66	389.1000
782.97	385.1000
783.28	383.1000
783.59	375.3000
783.90	369.2000
784.21	365.3000
784.52	365.6000
784.83	363.1000
785.14	363.0000
785.45	368.5000
785.76	361.1000
786.06	362.5000
786.37	363.4000
786.68	360.8000
786.99	357.5000
787.30	357.4000
787.61	361.4000
787.92	361.3000
788.23	360.8000
788.54	359.3000
788.84	351.1000
789.15	351.4000
789.46	349.8000
789.77	342.1000
790.08	343.4000
790.39	336.5000
790.70	341.5000
791.00	339.1000
791.31	332.2000
791.62	332.1000
791.93	327.7000
792.24	328.8000
792.54	327.3000
792.85	329.1000
793.16	339.9000
793.47	343.4000
793.78	349.0000
794.08	347.8000
794.39	341.5000
794.70	338.0000
795.01	331.1000
795.31	324.3000
795.62	317.4000
795.93	314.8000
796.24	312.6000
796.54	310.9000
796.85	311.5000
797.16	304.6000
797.47	305.2000
797.77	305.5000
798.08	304.8000
798.39	306.3000
798.69	305.9000
799.00	302.0000
799.31	303.0000
799.62	299.8000
799.92	295.8000
800.23	296.3000
800.54	293.2000
800.84	293.2000
801.15	291.2000
801.46	292.5000
801.76	290.4000
802.07	283.5000
802.37	286.1000
802.68	285.4000
802.99	286.1000
803.29	278.9000
803.60	277.6000
803.91	278.7000
804.21	279.8000
804.52	275.0000
804.82	276.0000
805.13	281.6000
805.44	283.8000
805.74	283.3000
806.05	286.8000
806.35	280.7000
806.66	277.5000
806.96	276.7000
807.27	269.8000
807.57	269.4000
807.88	266.9000
808.19	266.7000
808.49	266.4000
808.80	264.0000
809.10	262.8000
809.41	263.4000
809.71	260.4000
810.02	259.3000
810.32	257.7000
810.63	259.9000
810.93	260.9000
811.24	255.5000
811.54	252.7000
811.85	253.6000
812.15	245.2000
812.45	247.3000
812.76	248.4000
813.06	249.2000
813.37	249.3000
813.67	254.2000
813.98	250.8000
814.28	245.4000
814.58	245.9000
814.89	243.3000
815.19	239.3000
815.50	236.7000
815.80	239.2000
816.11	236.8000
816.41	238.5000
816.71	239.9000
817.02	236.0000
817.32	233.8000
817.62	232.3000
817.93	233.9000
818.23	230.6000
818.53	232.2000
818.84	232.5000
819.14	230.7000
819.44	229.1000
819.75	230.1000
820.05	232.0000
820.35	233.7000
820.66	232.6000
820.96	228.4000
821.26	228.4000
821.57	226.9000
821.87	225.1000
822.17	225.2000
822.48	223.7000
822.78	224.8000
823.08	221.3000
823.38	220.6000
823.69	217.3000
823.99	217.6000
824.29	215.2000
824.59	215.5000
824.90	220.1000
825.20	218.7000
825.50	217.7000
825.80	216.4000
826.10	216.0000
826.41	216.9000
826.71	217.6000
827.01	217.0000
827.31	216.9000
827.61	215.3000
827.92	215.3000
828.22	211.6000
828.52	207.3000
828.82	208.6000
829.12	207.6000
829.42	208.4000
829.73	208.1000
830.03	207.1000
830.33	201.8000
830.63	201.1000
830.93	199.8000
831.23	199.6000
831.53	198.3000
831.83	196.9000
832.14	197.2000
832.44	197.5000
832.74	198.4000
833.04	196.9000
833.34	199.3000
833.64	199.7000
833.94	196.2000
834.24	197.2000
834.54	196.1000
834.84	195.1000
835.14	192.9000
835.44	193.6000
835.74	192.9000
836.04	190.2000
836.34	190.7000
836.64	190.1000
836.95	189.5000
837.25	188.5000
837.55	189.4000
837.85	186.5000
838.15	187.2000
838.45	187.0000
838.74	184.5000
839.04	181.5000
839.34	183.5000
839.64	182.8000
839.94	182.5000
840.24	183.2000
840.54	184.1000
840.84	182.9000
841.14	180.9000
841.44	183.1000
841.74	182.5000
842.04	179.9000
842.34	180.9000
842.64	178.5000
842.94	178.2000
843.24	178.0000
843.53	178.5000
843.83	178.5000
844.13	177.0000
844.43	173.7000
844.73	177.4000
845.03	176.0000
845.33	175.8000
845.63	175.8000
845.92	174.2000
846.22	174.0000
846.52	174.5000
846.82	173.4000
847.12	172.0000
847.42	171.2000
847.71	171.2000
848.01	170.2000
848.31	168.7000
848.61	169.9000
848.91	169.9000
849.20	169.8000
849.50	168.0000
849.80	167.4000
850.10	165.3000
850.39	164.0000
850.69	164.9000
850.99	163.1000
851.29	164.6000
851.59	164.4000
851.88	164.1000
852.18	163.2000
852.48	162.9000
852.77	164.6000
853.07	164.9000
853.37	165.4000
853.67	166.1000
853.96	164.1000
854.26	161.6000
854.56	163.4000
854.85	160.7000
855.15	163.0000
855.45	160.7000
855.74	158.4000
856.04	158.3000
856.34	159.3000
856.63	158.1000
856.93	154.4000
857.23	155.9000
857.52	154.7000
857.82	154.8000
858.11	156.0000
858.41	152.5000
858.71	152.0000
859.00	152.4000
859.30	153.2000
859.59	153.4000
859.89	152.4000
860.19	150.8000
860.48	150.4000
860.78	150.9000
861.07	151.9000
861.37	150.1000
861.66	150.8000
861.96	147.8000
862.26	147.3000
862.55	147.1000
862.85	146.6000
863.14	148.7000
863.44	147.5000
863.73	147.8000
864.03	145.9000
864.32	146.4000
864.62	144.1000
864.91	142.9000
865.21	144.9000
865.50	144.0000
865.80	144.1000
866.09	143.0000
866.39	140.1000
866.68	142.2000
866.97	140.8000
867.27	141.5000
867.56	139.7000
867.86	140.9000
868.15	138.7000
868.45	137.9000
868.74	138.1000
869.03	138.6000
869.33	138.2000
869.62	138.9000
869.92	137.2000
870.21	134.8000
870.50	137.0000
870.80	134.7000
871.09	135.9000
871.39	136.7000
871.68	135.1000
871.97	134.6000
872.27	134.8000
872.56	131.8000
872.85	133.3000
873.15	133.7000
873.44	132.5000
873.73	132.7000
874.03	132.0000
874.32	132.0000
874.61	132.0000
874.90	130.6000
875.20	131.1000
875.49	131.6000
875.78	129.7000
>>>>>End Spectral Data<<<<<
