OOIBase32 Version 1.0.0.8 Data File
++++++++++++++++++++++++++++++++++++
Date: Monday, January 14, 1980, 01:27:57
User: Valued Ocean Optics Customer
Spectrometer Serial Number: Unknown
Spectrometer Channel: Master
Integration Time (msec): 3
Spectra Averaged: 10
Boxcar Smoothing: 0
Correct for Electrical Dark: Disabled
Time Normalized: Disabled
Dual-beam Reference: Disabled
Reference Channel: Master
>>>>>Begin Spectral Data<<<<<
179.00	0.0000
179.38	0.0000
179.75	85.0000
180.13	84.8000
180.51	85.4000
180.88	84.9000
181.26	85.0000
181.64	84.2000
182.02	85.0000
182.39	85.8000
182.77	85.6000
183.15	84.9000
183.52	84.1000
183.90	84.9000
184.28	85.6000
184.65	84.5000
185.03	85.0000
185.41	85.1000
185.78	86.0000
186.16	85.9000
186.53	84.6000
186.91	85.4000
187.29	84.4000
187.66	86.9000
188.04	85.9000
188.42	85.9000
188.79	85.9000
189.17	86.0000
189.55	86.5000
189.92	85.7000
190.30	86.8000
190.67	86.3000
191.05	86.1000
191.43	86.7000
191.80	87.1000
192.18	85.8000
192.56	85.8000
192.93	86.6000
193.31	86.8000
193.68	86.5000
194.06	86.5000
194.44	87.3000
194.81	86.7000
195.19	88.7000
195.56	87.1000
195.94	86.4000
196.32	86.3000
196.69	87.6000
197.07	86.8000
197.44	86.6000
197.82	86.2000
198.19	86.4000
198.57	85.9000
198.95	86.8000
199.32	86.0000
199.70	86.1000
200.07	87.7000
200.45	85.4000
200.82	86.6000
201.20	88.4000
201.57	87.4000
201.95	86.5000
202.33	85.8000
202.70	87.3000
203.08	87.5000
203.45	87.4000
203.83	87.0000
204.20	86.3000
204.58	86.6000
204.95	87.9000
205.33	85.7000
205.70	88.3000
206.08	85.9000
206.45	87.1000
206.83	87.6000
207.20	86.9000
207.58	87.0000
207.95	87.7000
208.33	86.2000
208.70	86.7000
209.08	86.5000
209.45	87.5000
209.83	87.6000
210.20	86.6000
210.58	87.5000
210.95	86.0000
211.33	86.2000
211.70	87.0000
212.08	87.5000
212.45	87.8000
212.83	85.4000
213.20	86.4000
213.58	87.8000
213.95	87.8000
214.33	87.4000
214.70	86.1000
215.07	87.8000
215.45	87.3000
215.82	88.7000
216.20	88.2000
216.57	87.2000
216.95	87.6000
217.32	87.1000
217.70	86.9000
218.07	86.3000
218.44	88.7000
218.82	88.3000
219.19	88.0000
219.57	87.0000
219.94	87.8000
220.32	86.0000
220.69	86.6000
221.06	87.8000
221.44	86.8000
221.81	87.8000
222.19	87.3000
222.56	86.3000
222.93	88.4000
223.31	86.5000
223.68	87.8000
224.06	86.8000
224.43	88.2000
224.80	88.8000
225.18	87.6000
225.55	87.8000
225.92	88.0000
226.30	88.1000
226.67	88.5000
227.05	87.6000
227.42	87.6000
227.79	87.3000
228.17	88.6000
228.54	86.6000
228.91	87.0000
229.29	87.3000
229.66	88.0000
230.03	87.2000
230.41	87.3000
230.78	86.5000
231.15	88.4000
231.53	88.5000
231.90	87.8000
232.27	87.6000
232.65	88.8000
233.02	87.3000
233.39	88.0000
233.77	86.6000
234.14	87.2000
234.51	86.5000
234.89	87.3000
235.26	88.7000
235.63	86.5000
236.01	87.7000
236.38	85.7000
236.75	86.1000
237.12	86.8000
237.50	86.7000
237.87	87.6000
238.24	85.9000
238.62	85.6000
238.99	86.2000
239.36	86.8000
239.73	87.7000
240.11	86.7000
240.48	86.0000
240.85	88.4000
241.23	86.4000
241.60	88.2000
241.97	87.9000
242.34	86.7000
242.72	88.2000
243.09	87.1000
243.46	86.8000
243.83	88.3000
244.21	86.7000
244.58	87.2000
244.95	86.1000
245.32	88.4000
245.70	87.3000
246.07	88.0000
246.44	86.1000
246.81	87.1000
247.18	86.8000
247.56	87.6000
247.93	87.1000
248.30	87.8000
248.67	86.2000
249.04	88.4000
249.42	88.0000
249.79	86.9000
250.16	87.7000
250.53	88.3000
250.90	86.3000
251.28	87.0000
251.65	87.2000
252.02	87.0000
252.39	87.6000
252.76	86.7000
253.14	88.0000
253.51	87.3000
253.88	87.4000
254.25	86.9000
254.62	87.4000
254.99	86.9000
255.37	87.9000
255.74	88.6000
256.11	86.6000
256.48	88.0000
256.85	88.0000
257.22	87.3000
257.59	88.2000
257.97	87.7000
258.34	87.0000
258.71	87.8000
259.08	89.0000
259.45	88.3000
259.82	87.6000
260.19	89.2000
260.56	88.2000
260.94	88.7000
261.31	88.7000
261.68	88.6000
262.05	90.6000
262.42	88.8000
262.79	89.5000
263.16	90.0000
263.53	90.1000
263.90	89.1000
264.28	91.8000
264.65	90.5000
265.02	90.0000
265.39	91.0000
265.76	91.2000
266.13	91.8000
266.50	91.5000
266.87	90.9000
267.24	90.6000
267.61	90.7000
267.98	91.4000
268.35	91.9000
268.72	92.5000
269.09	92.9000
269.46	93.2000
269.84	93.3000
270.21	93.7000
270.58	91.8000
270.95	92.2000
271.32	94.0000
271.69	93.7000
272.06	94.0000
272.43	94.2000
272.80	94.7000
273.17	93.9000
273.54	95.3000
273.91	94.5000
274.28	94.1000
274.65	94.8000
275.02	95.0000
275.39	93.7000
275.76	95.9000
276.13	94.3000
276.50	95.6000
276.87	95.7000
277.24	96.5000
277.61	94.7000
277.98	95.5000
278.35	93.7000
278.72	95.4000
279.09	96.8000
279.46	95.6000
279.83	96.1000
280.20	94.5000
280.57	96.4000
280.94	97.1000
281.31	95.3000
281.67	97.1000
282.04	97.1000
282.41	98.1000
282.78	96.4000
283.15	97.9000
283.52	96.7000
283.89	98.2000
284.26	96.6000
284.63	98.2000
285.00	98.1000
285.37	97.9000
285.74	97.7000
286.11	98.4000
286.48	98.0000
286.85	98.6000
287.21	99.2000
287.58	98.1000
287.95	99.6000
288.32	98.8000
288.69	98.8000
289.06	99.5000
289.43	99.7000
289.80	99.6000
290.17	98.9000
290.54	100.3000
290.90	100.7000
291.27	101.7000
291.64	100.7000
292.01	100.3000
292.38	100.1000
292.75	99.9000
293.12	100.1000
293.48	101.7000
293.85	101.3000
294.22	100.1000
294.59	101.1000
294.96	100.9000
295.33	98.8000
295.70	100.9000
296.06	99.0000
296.43	101.3000
296.80	100.6000
297.17	102.0000
297.54	101.7000
297.91	102.1000
298.27	101.5000
298.64	102.6000
299.01	101.2000
299.38	101.1000
299.75	101.7000
300.11	102.6000
300.48	101.8000
300.85	103.8000
301.22	102.9000
301.59	103.3000
301.95	102.1000
302.32	101.9000
302.69	103.4000
303.06	102.9000
303.43	102.0000
303.79	103.8000
304.16	103.4000
304.53	101.8000
304.90	104.8000
305.26	104.5000
305.63	104.8000
306.00	104.1000
306.37	104.3000
306.73	104.1000
307.10	104.4000
307.47	103.3000
307.84	104.8000
308.20	102.8000
308.57	105.0000
308.94	105.2000
309.31	106.8000
309.67	106.1000
310.04	105.1000
310.41	105.6000
310.77	103.0000
311.14	104.9000
311.51	105.6000
311.88	104.9000
312.24	105.0000
312.61	104.4000
312.98	104.9000
313.34	105.4000
313.71	106.5000
314.08	107.6000
314.44	105.6000
314.81	106.2000
315.18	106.2000
315.55	106.0000
315.91	106.3000
316.28	107.9000
316.65	107.5000
317.01	107.5000
317.38	108.2000
317.75	106.7000
318.11	107.1000
318.48	106.8000
318.84	107.9000
319.21	108.1000
319.58	108.8000
319.94	107.7000
320.31	108.6000
320.68	110.4000
321.04	109.5000
321.41	109.5000
321.78	108.9000
322.14	110.5000
322.51	110.1000
322.87	109.7000
323.24	109.3000
323.61	110.8000
323.97	109.8000
324.34	110.5000
324.70	112.6000
325.07	111.1000
325.44	111.2000
325.80	110.7000
326.17	112.3000
326.53	112.0000
326.90	112.4000
327.27	111.7000
327.63	113.0000
328.00	114.2000
328.36	112.1000
328.73	112.9000
329.09	114.4000
329.46	114.5000
329.83	114.9000
330.19	113.6000
330.56	114.3000
330.92	115.6000
331.29	113.9000
331.65	115.4000
332.02	114.9000
332.38	115.0000
332.75	116.5000
333.11	115.8000
333.48	118.8000
333.84	118.1000
334.21	118.5000
334.58	117.7000
334.94	115.8000
335.31	118.8000
335.67	119.0000
336.04	119.4000
336.40	116.9000
336.77	117.4000
337.13	117.6000
337.50	117.6000
337.86	117.6000
338.22	119.2000
338.59	120.7000
338.95	119.4000
339.32	120.6000
339.68	118.6000
340.05	120.5000
340.41	119.8000
340.78	119.9000
341.14	121.4000
341.51	121.2000
341.87	121.4000
342.24	122.5000
342.60	124.9000
342.96	123.9000
343.33	125.8000
343.69	123.5000
344.06	125.2000
344.42	125.9000
344.79	126.4000
345.15	128.6000
345.51	127.2000
345.88	128.0000
346.24	126.9000
346.61	128.2000
346.97	127.5000
347.34	128.4000
347.70	130.7000
348.06	130.1000
348.43	131.4000
348.79	131.0000
349.16	130.2000
349.52	133.0000
349.88	132.8000
350.25	134.6000
350.61	131.5000
350.97	134.6000
351.34	132.0000
351.70	135.7000
352.07	132.9000
352.43	135.1000
352.79	136.0000
353.16	136.0000
353.52	137.5000
353.88	134.9000
354.25	137.0000
354.61	139.0000
354.97	138.5000
355.34	139.8000
355.70	140.5000
356.06	138.6000
356.43	141.0000
356.79	140.4000
357.15	141.8000
357.52	142.3000
357.88	141.0000
358.24	144.5000
358.60	144.6000
358.97	146.6000
359.33	146.7000
359.69	146.1000
360.06	147.1000
360.42	148.4000
360.78	148.7000
361.14	149.0000
361.51	151.0000
361.87	152.8000
362.23	155.4000
362.60	154.9000
362.96	155.6000
363.32	157.1000
363.68	156.0000
364.05	159.2000
364.41	159.8000
364.77	162.4000
365.13	159.7000
365.50	162.5000
365.86	164.1000
366.22	167.4000
366.58	165.6000
366.95	167.7000
367.31	166.0000
367.67	169.6000
368.03	168.8000
368.39	172.9000
368.76	172.6000
369.12	167.3000
369.48	171.3000
369.84	169.9000
370.20	177.2000
370.57	174.2000
370.93	176.1000
371.29	174.3000
371.65	179.0000
372.01	179.0000
372.38	177.8000
372.74	180.2000
373.10	176.5000
373.46	182.8000
373.82	181.6000
374.18	182.4000
374.55	183.6000
374.91	186.0000
375.27	190.2000
375.63	186.1000
375.99	185.9000
376.35	190.7000
376.71	187.6000
377.08	190.9000
377.44	194.1000
377.80	200.9000
378.16	200.0000
378.52	202.2000
378.88	206.2000
379.24	203.4000
379.60	210.2000
379.97	217.2000
380.33	214.7000
380.69	210.1000
381.05	210.8000
381.41	219.4000
381.77	215.3000
382.13	219.1000
382.49	215.6000
382.85	213.2000
383.21	224.7000
383.57	210.9000
383.94	226.8000
384.30	224.5000
384.66	222.7000
385.02	216.7000
385.38	223.9000
385.74	222.3000
386.10	228.2000
386.46	237.6000
386.82	232.6000
387.18	242.8000
387.54	240.3000
387.90	233.5000
388.26	246.1000
388.62	242.1000
388.98	235.1000
389.34	237.8000
389.70	240.7000
390.06	223.0000
390.42	227.7000
390.78	248.5000
391.14	262.7000
391.50	254.2000
391.86	263.4000
392.22	270.6000
392.58	263.9000
392.94	237.5000
393.30	246.5000
393.66	253.7000
394.02	258.5000
394.38	234.9000
394.74	246.2000
395.10	250.0000
395.46	257.6000
395.82	260.4000
396.18	251.5000
396.54	279.1000
396.90	285.5000
397.26	278.3000
397.62	274.9000
397.98	296.2000
398.34	263.7000
398.70	266.8000
399.05	251.0000
399.41	251.5000
399.77	256.4000
400.13	268.0000
400.49	275.4000
400.85	274.9000
401.21	259.8000
401.57	279.5000
401.93	267.6000
402.29	263.4000
402.65	268.6000
403.00	277.5000
403.36	278.7000
403.72	276.8000
404.08	309.4000
404.44	284.2000
404.80	290.2000
405.16	290.3000
405.52	286.5000
405.87	294.3000
406.23	291.1000
406.59	264.4000
406.95	282.4000
407.31	285.1000
407.67	288.5000
408.03	292.3000
408.38	294.9000
408.74	313.6000
409.10	316.6000
409.46	293.3000
409.82	298.8000
410.17	295.6000
410.53	288.6000
410.89	295.1000
411.25	272.3000
411.61	287.2000
411.97	307.9000
412.32	306.5000
412.68	312.0000
413.04	292.4000
413.40	271.4000
413.75	287.2000
414.11	286.7000
414.47	282.2000
414.83	319.0000
415.19	296.4000
415.54	275.9000
415.90	308.4000
416.26	301.2000
416.62	305.5000
416.97	278.1000
417.33	314.3000
417.69	310.0000
418.05	305.4000
418.40	288.2000
418.76	288.7000
419.12	320.9000
419.48	324.6000
419.83	347.9000
420.19	314.6000
420.55	320.1000
420.90	363.1000
421.26	343.6000
421.62	312.2000
421.98	340.0000
422.33	355.3000
422.69	364.3000
423.05	346.9000
423.40	307.9000
423.76	301.1000
424.12	329.8000
424.47	332.2000
424.83	310.7000
425.19	311.0000
425.54	317.2000
425.90	337.3000
426.26	348.6000
426.61	362.9000
426.97	289.8000
427.33	339.5000
427.68	331.1000
428.04	375.3000
428.40	379.0000
428.75	396.8000
429.11	351.8000
429.47	406.6000
429.82	397.1000
430.18	368.4000
430.53	354.3000
430.89	353.8000
431.25	342.0000
431.60	351.0000
431.96	343.4000
432.31	339.5000
432.67	371.0000
433.03	394.6000
433.38	363.9000
433.74	366.1000
434.09	369.6000
434.45	359.9000
434.81	344.1000
435.16	369.2000
435.52	343.3000
435.87	338.6000
436.23	336.1000
436.58	337.5000
436.94	356.7000
437.30	372.2000
437.65	383.1000
438.01	383.2000
438.36	354.4000
438.72	346.2000
439.07	336.6000
439.43	353.9000
439.78	382.0000
440.14	419.6000
440.49	373.4000
440.85	381.4000
441.20	400.1000
441.56	385.8000
441.91	413.0000
442.27	378.4000
442.62	383.5000
442.98	398.6000
443.33	385.1000
443.69	394.1000
444.04	382.5000
444.40	356.1000
444.75	395.6000
445.11	416.2000
445.46	423.5000
445.82	416.0000
446.17	384.8000
446.53	404.2000
446.88	441.6000
447.23	372.7000
447.59	375.0000
447.94	376.6000
448.30	389.2000
448.65	379.0000
449.01	409.9000
449.36	409.7000
449.72	421.1000
450.07	438.6000
450.42	412.3000
450.78	392.4000
451.13	417.3000
451.49	394.5000
451.84	391.8000
452.19	374.0000
452.55	384.4000
452.90	395.7000
453.26	429.5000
453.61	436.2000
453.96	369.9000
454.32	415.0000
454.67	399.4000
455.02	362.5000
455.38	385.7000
455.73	391.5000
456.09	429.6000
456.44	433.3000
456.79	434.1000
457.15	418.1000
457.50	409.2000
457.85	412.3000
458.21	426.2000
458.56	416.7000
458.91	407.6000
459.27	387.6000
459.62	405.0000
459.97	412.4000
460.32	422.6000
460.68	400.0000
461.03	383.3000
461.38	392.4000
461.74	430.8000
462.09	414.3000
462.44	404.4000
462.80	420.2000
463.15	422.3000
463.50	416.5000
463.85	438.5000
464.21	453.4000
464.56	470.1000
464.91	420.7000
465.26	422.0000
465.62	429.5000
465.97	451.9000
466.32	440.6000
466.67	439.1000
467.03	433.4000
467.38	431.0000
467.73	433.0000
468.08	445.4000
468.44	447.8000
468.79	430.7000
469.14	415.9000
469.49	432.4000
469.85	436.8000
470.20	469.9000
470.55	475.9000
470.90	474.7000
471.25	440.1000
471.61	469.2000
471.96	472.7000
472.31	494.9000
472.66	497.2000
473.01	505.3000
473.36	516.8000
473.72	519.1000
474.07	531.1000
474.42	530.5000
474.77	534.0000
475.12	539.9000
475.47	546.1000
475.83	551.1000
476.18	544.9000
476.53	537.3000
476.88	573.3000
477.23	573.3000
477.58	565.5000
477.93	563.1000
478.28	569.1000
478.64	585.8000
478.99	601.0000
479.34	608.5000
479.69	614.5000
480.04	623.3000
480.39	622.1000
480.74	609.1000
481.09	646.4000
481.44	643.7000
481.79	635.1000
482.15	643.4000
482.50	653.0000
482.85	658.9000
483.20	685.7000
483.55	699.9000
483.90	723.4000
484.25	849.8000
484.60	940.2000
484.95	1001.3000
485.30	954.1000
485.65	855.5000
486.00	809.8000
486.35	747.6000
486.70	712.2000
487.05	723.4000
487.40	712.2000
487.75	711.6000
488.10	714.2000
488.45	704.7000
488.80	706.6000
489.15	726.3000
489.50	720.8000
489.85	724.3000
490.20	713.3000
490.55	723.5000
490.90	722.6000
491.25	725.0000
491.60	716.9000
491.95	713.5000
492.30	720.8000
492.65	732.9000
493.00	727.8000
493.35	732.2000
493.70	733.6000
494.05	728.8000
494.40	741.8000
494.75	754.1000
495.10	762.4000
495.45	766.0000
495.80	760.1000
496.15	747.4000
496.50	726.6000
496.84	734.1000
497.19	735.3000
497.54	748.3000
497.89	755.1000
498.24	750.4000
498.59	756.1000
498.94	747.7000
499.29	740.5000
499.64	744.5000
499.99	750.5000
500.33	761.4000
500.68	768.3000
501.03	766.9000
501.38	762.7000
501.73	771.5000
502.08	764.6000
502.43	769.3000
502.77	768.5000
503.12	760.6000
503.47	759.4000
503.82	762.6000
504.17	766.7000
504.52	772.9000
504.86	771.8000
505.21	780.2000
505.56	769.4000
505.91	766.0000
506.26	762.7000
506.61	769.5000
506.95	772.4000
507.30	767.9000
507.65	776.3000
508.00	772.9000
508.35	770.3000
508.69	767.7000
509.04	777.4000
509.39	772.8000
509.74	772.8000
510.08	778.4000
510.43	782.1000
510.78	774.5000
511.13	778.8000
511.47	780.0000
511.82	783.9000
512.17	784.7000
512.52	786.1000
512.86	785.3000
513.21	783.0000
513.56	779.6000
513.91	784.1000
514.25	778.7000
514.60	783.4000
514.95	790.1000
515.30	792.0000
515.64	792.8000
515.99	799.9000
516.34	792.0000
516.68	789.5000
517.03	790.8000
517.38	800.0000
517.72	809.9000
518.07	802.1000
518.42	803.8000
518.76	807.8000
519.11	797.6000
519.46	799.8000
519.80	791.6000
520.15	795.7000
520.50	806.5000
520.84	795.8000
521.19	797.7000
521.54	803.1000
521.88	793.9000
522.23	803.4000
522.58	803.7000
522.92	812.0000
523.27	812.4000
523.61	808.7000
523.96	807.4000
524.31	818.2000
524.65	815.6000
525.00	815.8000
525.34	800.8000
525.69	805.1000
526.04	811.4000
526.38	817.5000
526.73	806.7000
527.07	817.3000
527.42	815.2000
527.76	826.4000
528.11	832.5000
528.46	818.8000
528.80	819.1000
529.15	813.1000
529.49	811.2000
529.84	814.8000
530.18	813.7000
530.53	815.6000
530.87	814.0000
531.22	813.9000
531.56	814.1000
531.91	825.3000
532.25	830.9000
532.60	830.1000
532.94	830.7000
533.29	826.1000
533.63	826.2000
533.98	822.2000
534.32	831.4000
534.67	839.4000
535.01	832.6000
535.36	816.8000
535.70	824.0000
536.05	819.9000
536.39	825.9000
536.74	825.6000
537.08	829.6000
537.43	830.5000
537.77	837.2000
538.12	842.4000
538.46	842.9000
538.80	844.7000
539.15	831.5000
539.49	838.1000
539.84	850.8000
540.18	847.0000
540.53	838.1000
540.87	839.2000
541.21	849.2000
541.56	841.4000
541.90	843.3000
542.25	841.7000
542.59	839.1000
542.93	851.1000
543.28	851.7000
543.62	853.1000
543.97	851.5000
544.31	851.9000
544.65	852.5000
545.00	850.9000
545.34	846.4000
545.68	854.0000
546.03	850.9000
546.37	870.9000
546.71	879.8000
547.06	882.9000
547.40	875.9000
547.74	876.0000
548.09	862.0000
548.43	848.5000
548.77	848.6000
549.12	844.4000
549.46	839.9000
549.80	848.9000
550.15	851.5000
550.49	852.9000
550.83	865.4000
551.17	877.5000
551.52	872.5000
551.86	870.7000
552.20	866.8000
552.55	876.4000
552.89	873.7000
553.23	866.2000
553.57	875.3000
553.92	876.3000
554.26	886.8000
554.60	884.4000
554.94	888.1000
555.29	894.5000
555.63	891.6000
555.97	890.5000
556.31	888.6000
556.66	889.8000
557.00	883.9000
557.34	883.2000
557.68	890.4000
558.02	884.0000
558.37	894.0000
558.71	900.2000
559.05	906.4000
559.39	919.9000
559.73	930.0000
560.08	933.3000
560.42	932.7000
560.76	929.9000
561.10	920.0000
561.44	917.8000
561.78	926.0000
562.13	934.6000
562.47	928.2000
562.81	943.2000
563.15	940.5000
563.49	942.5000
563.83	945.5000
564.17	948.1000
564.52	949.5000
564.86	944.9000
565.20	946.5000
565.54	949.1000
565.88	957.4000
566.22	979.0000
566.56	984.9000
566.90	1001.6000
567.24	1013.9000
567.59	1025.9000
567.93	1049.0000
568.27	1067.3000
568.61	1091.9000
568.95	1099.8000
569.29	1113.2000
569.63	1145.4000
569.97	1159.0000
570.31	1159.0000
570.65	1180.1000
570.99	1177.3000
571.33	1173.8000
571.67	1162.0000
572.01	1184.2000
572.35	1223.9000
572.69	1246.9000
573.03	1265.8000
573.37	1290.8000
573.71	1288.8000
574.05	1268.8000
574.39	1251.7000
574.73	1249.7000
575.07	1249.2000
575.41	1265.0000
575.75	1268.4000
576.09	1332.3000
576.43	1376.3000
576.77	1424.2000
577.11	1410.7000
577.45	1377.1000
577.79	1339.6000
578.13	1332.3000
578.47	1320.8000
578.81	1320.8000
579.15	1318.1000
579.49	1337.4000
579.83	1422.9000
580.17	1503.7000
580.51	1573.6000
580.85	1583.8000
581.19	1512.2000
581.53	1436.8000
581.87	1356.9000
582.20	1297.2000
582.54	1262.5000
582.88	1264.4000
583.22	1296.0000
583.56	1342.5000
583.90	1398.8000
584.24	1425.0000
584.58	1395.5000
584.92	1369.6000
585.25	1336.7000
585.59	1322.2000
585.93	1333.7000
586.27	1370.7000
586.61	1350.4000
586.95	1354.2000
587.29	1337.3000
587.62	1306.9000
587.96	1280.8000
588.30	1262.2000
588.64	1242.9000
588.98	1246.6000
589.31	1228.0000
589.65	1212.5000
589.99	1194.1000
590.33	1205.4000
590.67	1201.7000
591.01	1229.0000
591.34	1287.3000
591.68	1337.8000
592.02	1377.4000
592.36	1364.6000
592.69	1333.7000
593.03	1309.9000
593.37	1300.7000
593.71	1305.7000
594.04	1324.5000
594.38	1313.3000
594.72	1299.6000
595.06	1261.0000
595.39	1249.2000
595.73	1247.6000
596.07	1263.5000
596.41	1261.6000
596.74	1253.7000
597.08	1260.7000
597.42	1295.5000
597.76	1319.9000
598.09	1337.2000
598.43	1329.3000
598.77	1341.5000
599.10	1354.1000
599.44	1351.9000
599.78	1348.0000
600.11	1335.8000
600.45	1334.9000
600.79	1299.9000
601.12	1303.5000
601.46	1305.3000
601.80	1341.0000
602.13	1335.0000
602.47	1354.6000
602.81	1342.0000
603.14	1309.0000
603.48	1302.8000
603.82	1295.9000
604.15	1294.4000
604.49	1316.2000
604.82	1319.0000
605.16	1301.2000
605.50	1283.5000
605.83	1306.1000
606.17	1309.8000
606.50	1322.7000
606.84	1304.2000
607.18	1297.9000
607.51	1284.7000
607.85	1283.4000
608.18	1265.4000
608.52	1288.4000
608.86	1292.0000
609.19	1301.5000
609.53	1281.7000
609.86	1289.2000
610.20	1291.1000
610.53	1275.1000
610.87	1253.8000
611.20	1272.4000
611.54	1244.1000
611.87	1250.3000
612.21	1258.0000
612.54	1246.3000
612.88	1246.0000
613.21	1257.7000
613.55	1267.7000
613.88	1268.9000
614.22	1277.0000
614.55	1262.7000
614.89	1248.0000
615.22	1226.2000
615.56	1218.9000
615.89	1213.6000
616.23	1216.6000
616.56	1203.6000
616.90	1204.7000
617.23	1193.8000
617.57	1198.3000
617.90	1182.3000
618.24	1183.9000
618.57	1186.5000
618.90	1194.4000
619.24	1183.6000
619.57	1164.9000
619.91	1164.4000
620.24	1131.4000
620.58	1151.4000
620.91	1166.8000
621.24	1173.8000
621.58	1187.6000
621.91	1188.5000
622.25	1190.4000
622.58	1179.5000
622.91	1180.8000
623.25	1170.6000
623.58	1172.3000
623.91	1159.2000
624.25	1148.3000
624.58	1145.0000
624.92	1135.9000
625.25	1130.9000
625.58	1125.2000
625.92	1132.4000
626.25	1131.7000
626.58	1132.4000
626.92	1118.9000
627.25	1113.8000
627.58	1104.9000
627.91	1112.2000
628.25	1118.1000
628.58	1117.0000
628.91	1107.7000
629.25	1105.1000
629.58	1094.6000
629.91	1094.2000
630.25	1089.5000
630.58	1089.0000
630.91	1075.7000
631.24	1078.6000
631.58	1067.7000
631.91	1067.5000
632.24	1054.2000
632.57	1056.3000
632.91	1060.1000
633.24	1050.9000
633.57	1050.1000
633.90	1050.8000
634.24	1048.9000
634.57	1049.1000
634.90	1064.8000
635.23	1055.0000
635.56	1060.4000
635.90	1059.0000
636.23	1057.0000
636.56	1044.3000
636.89	1053.6000
637.22	1056.9000
637.56	1050.2000
637.89	1033.7000
638.22	1043.4000
638.55	1040.6000
638.88	1020.0000
639.21	1038.1000
639.55	1028.1000
639.88	1022.7000
640.21	1021.0000
640.54	1017.5000
640.87	1009.9000
641.20	1010.9000
641.53	1014.8000
641.87	1008.6000
642.20	1012.7000
642.53	1004.9000
642.86	1013.7000
643.19	1011.1000
643.52	1010.5000
643.85	1012.0000
644.18	1006.5000
644.51	1005.3000
644.84	1007.5000
645.18	992.1000
645.51	994.5000
645.84	988.5000
646.17	992.4000
646.50	997.5000
646.83	1009.6000
647.16	1007.7000
647.49	1022.3000
647.82	1019.5000
648.15	1027.9000
648.48	1027.7000
648.81	1022.3000
649.14	1006.7000
649.47	1009.0000
649.80	1002.1000
650.13	996.7000
650.46	1004.0000
650.79	998.2000
651.12	1007.1000
651.45	1005.0000
651.78	1003.0000
652.11	1003.7000
652.44	1002.4000
652.77	998.0000
653.10	998.5000
653.43	996.2000
653.76	1000.9000
654.09	1060.9000
654.42	1747.2000
654.75	2638.6001
655.08	3112.1001
655.41	3148.3000
655.74	2491.8999
656.07	2047.2000
656.39	1744.8000
656.72	1496.8000
657.05	1274.7000
657.38	1131.7000
657.71	1051.4000
658.04	1014.8000
658.37	994.2000
658.70	990.6000
659.03	979.5000
659.36	976.7000
659.68	979.3000
660.01	976.4000
660.34	977.0000
660.67	972.8000
661.00	978.5000
661.33	957.7000
661.66	957.4000
661.98	962.2000
662.31	961.4000
662.64	953.5000
662.97	960.1000
663.30	959.0000
663.63	960.6000
663.95	961.0000
664.28	965.2000
664.61	959.4000
664.94	960.7000
665.27	957.7000
665.59	948.5000
665.92	942.8000
666.25	947.1000
666.58	936.9000
666.91	952.4000
667.23	936.4000
667.56	937.5000
667.89	941.8000
668.22	947.6000
668.54	944.5000
668.87	946.2000
669.20	932.1000
669.53	932.8000
669.85	932.6000
670.18	934.6000
670.51	943.5000
670.83	951.5000
671.16	965.0000
671.49	972.7000
671.82	965.2000
672.14	954.8000
672.47	946.0000
672.80	942.4000
673.12	944.5000
673.45	945.5000
673.78	929.5000
674.10	933.3000
674.43	925.2000
674.76	917.4000
675.08	927.8000
675.41	920.8000
675.74	918.0000
676.06	922.2000
676.39	915.2000
676.72	919.1000
677.04	924.7000
677.37	931.4000
677.69	925.4000
678.02	919.7000
678.35	926.2000
678.67	919.2000
679.00	937.0000
679.32	933.4000
679.65	914.3000
679.98	913.3000
680.30	911.3000
680.63	913.9000
680.95	908.5000
681.28	908.7000
681.60	898.4000
681.93	893.6000
682.26	896.5000
682.58	897.8000
682.91	899.9000
683.23	901.3000
683.56	903.7000
683.88	913.9000
684.21	918.0000
684.53	928.3000
684.86	928.7000
685.18	915.4000
685.51	915.3000
685.83	900.9000
686.16	894.2000
686.48	892.3000
686.81	888.8000
687.13	886.8000
687.46	872.5000
687.78	876.8000
688.11	865.3000
688.43	862.8000
688.76	859.1000
689.08	864.6000
689.41	858.4000
689.73	853.2000
690.05	855.3000
690.38	862.6000
690.70	861.9000
691.03	853.1000
691.35	851.9000
691.68	842.1000
692.00	847.8000
692.32	859.4000
692.65	853.6000
692.97	844.9000
693.29	830.3000
693.62	819.5000
693.94	830.7000
694.27	826.0000
694.59	810.6000
694.91	822.8000
695.24	819.0000
695.56	806.0000
695.88	823.3000
696.21	822.2000
696.53	829.0000
696.85	828.6000
697.18	827.3000
697.50	819.8000
697.82	821.8000
698.15	813.7000
698.47	807.3000
698.79	800.9000
699.12	800.8000
699.44	780.7000
699.76	781.8000
700.09	781.1000
700.41	782.4000
700.73	772.0000
701.05	785.5000
701.38	786.5000
701.70	791.1000
702.02	790.3000
702.34	786.1000
702.67	782.8000
702.99	778.2000
703.31	774.5000
703.63	775.3000
703.96	770.3000
704.28	759.8000
704.60	749.8000
704.92	767.2000
705.25	763.9000
705.57	771.5000
705.89	776.1000
706.21	784.6000
706.53	790.4000
706.86	792.4000
707.18	791.2000
707.50	791.1000
707.82	778.5000
708.14	775.9000
708.46	787.1000
708.79	768.8000
709.11	775.3000
709.43	770.1000
709.75	764.3000
710.07	756.6000
710.39	759.6000
710.71	753.5000
711.04	742.4000
711.36	746.7000
711.68	748.3000
712.00	751.5000
712.32	752.5000
712.64	750.2000
712.96	752.7000
713.28	752.3000
713.60	752.8000
713.92	746.4000
714.24	747.2000
714.57	737.7000
714.89	741.4000
715.21	728.6000
715.53	720.1000
715.85	711.9000
716.17	714.0000
716.49	711.6000
716.81	717.4000
717.13	718.6000
717.45	722.1000
717.77	726.1000
718.09	724.1000
718.41	729.5000
718.73	724.3000
719.05	716.7000
719.37	703.3000
719.69	708.9000
720.01	711.0000
720.33	701.4000
720.65	703.3000
720.97	704.7000
721.29	704.1000
721.61	707.0000
721.93	695.8000
722.25	693.5000
722.57	691.3000
722.89	691.4000
723.21	693.6000
723.52	691.9000
723.84	682.0000
724.16	701.8000
724.48	695.9000
724.80	702.2000
725.12	693.6000
725.44	698.0000
725.76	689.7000
726.08	693.2000
726.40	685.1000
726.72	686.7000
727.03	688.2000
727.35	683.7000
727.67	675.7000
727.99	686.0000
728.31	673.7000
728.63	676.8000
728.95	680.8000
729.26	672.3000
729.58	683.1000
729.90	682.7000
730.22	681.4000
730.54	681.8000
730.86	687.3000
731.17	687.0000
731.49	678.4000
731.81	672.7000
732.13	673.5000
732.45	662.9000
732.76	666.3000
733.08	670.3000
733.40	673.9000
733.72	670.3000
734.03	662.2000
734.35	662.3000
734.67	661.8000
734.99	658.6000
735.30	657.1000
735.62	654.3000
735.94	654.7000
736.26	644.8000
736.57	643.7000
736.89	650.9000
737.21	630.5000
737.53	622.5000
737.84	626.3000
738.16	627.9000
738.48	634.8000
738.79	644.1000
739.11	637.7000
739.43	627.3000
739.74	620.8000
740.06	613.3000
740.38	602.5000
740.69	597.1000
741.01	596.9000
741.33	591.4000
741.64	599.1000
741.96	589.8000
742.28	585.5000
742.59	578.3000
742.91	578.7000
743.23	569.3000
743.54	575.9000
743.86	573.8000
744.17	566.7000
744.49	563.8000
744.81	564.0000
745.12	565.3000
745.44	554.8000
745.75	561.0000
746.07	557.0000
746.38	554.2000
746.70	556.9000
747.02	556.4000
747.33	546.2000
747.65	545.5000
747.96	543.1000
748.28	550.6000
748.59	548.5000
748.91	549.8000
749.22	553.2000
749.54	553.4000
749.85	556.3000
750.17	553.2000
750.48	545.4000
750.80	542.2000
751.11	542.6000
751.43	539.7000
751.74	536.2000
752.06	536.1000
752.37	536.9000
752.69	544.1000
753.00	541.9000
753.32	539.2000
753.63	540.2000
753.95	541.6000
754.26	534.0000
754.58	536.3000
754.89	537.6000
755.20	539.6000
755.52	549.4000
755.83	554.0000
756.15	557.1000
756.46	563.9000
756.78	566.6000
757.09	570.5000
757.40	571.6000
757.72	557.2000
758.03	548.8000
758.34	543.6000
758.66	551.1000
758.97	554.1000
759.29	555.7000
759.60	558.1000
759.91	550.2000
760.23	548.5000
760.54	549.6000
760.85	541.7000
761.17	530.7000
761.48	521.8000
761.79	515.8000
762.11	514.5000
762.42	515.9000
762.73	522.4000
763.05	520.0000
763.36	532.7000
763.67	534.6000
763.98	532.7000
764.30	533.0000
764.61	532.2000
764.92	520.4000
765.23	511.1000
765.55	500.5000
765.86	492.5000
766.17	495.3000
766.48	491.8000
766.80	483.3000
767.11	491.7000
767.42	486.9000
767.73	497.7000
768.05	505.8000
768.36	513.3000
768.67	508.3000
768.98	497.3000
769.29	499.4000
769.61	493.7000
769.92	482.7000
770.23	490.6000
770.54	483.0000
770.85	486.8000
771.17	480.5000
771.48	477.3000
771.79	474.2000
772.10	469.7000
772.41	472.8000
772.72	460.3000
773.03	457.6000
773.35	457.9000
773.66	450.9000
773.97	447.3000
774.28	446.6000
774.59	442.4000
774.90	443.0000
775.21	444.8000
775.52	440.6000
775.83	438.2000
776.15	434.0000
776.46	431.2000
776.77	431.4000
777.08	433.3000
777.39	433.0000
777.70	427.9000
778.01	430.4000
778.32	433.5000
778.63	439.3000
778.94	434.8000
779.25	427.8000
779.56	424.1000
779.87	421.5000
780.18	423.5000
780.49	427.4000
780.80	434.1000
781.11	425.9000
781.42	424.1000
781.73	422.6000
782.04	414.2000
782.35	413.7000
782.66	416.4000
782.97	416.7000
783.28	414.8000
783.59	403.4000
783.90	402.5000
784.21	399.9000
784.52	396.5000
784.83	397.8000
785.14	396.8000
785.45	396.0000
785.76	394.9000
786.06	392.0000
786.37	395.7000
786.68	387.7000
786.99	387.2000
787.30	389.7000
787.61	392.4000
787.92	387.0000
788.23	386.6000
788.54	391.0000
788.84	384.8000
789.15	380.5000
789.46	377.7000
789.77	368.4000
790.08	370.8000
790.39	365.7000
790.70	370.0000
791.00	368.0000
791.31	360.9000
791.62	362.7000
791.93	359.0000
792.24	360.3000
792.54	352.0000
792.85	356.4000
793.16	367.4000
793.47	371.5000
793.78	377.0000
794.08	372.9000
794.39	370.2000
794.70	366.6000
795.01	357.9000
795.31	351.5000
795.62	344.5000
795.93	343.8000
796.24	338.9000
796.54	339.8000
796.85	341.0000
797.16	333.9000
797.47	332.8000
797.77	332.2000
798.08	330.5000
798.39	330.5000
798.69	329.0000
799.00	331.2000
799.31	326.3000
799.62	323.6000
799.92	319.7000
800.23	318.7000
800.54	318.1000
800.84	315.0000
801.15	316.4000
801.46	314.2000
801.76	315.4000
802.07	307.1000
802.37	308.5000
802.68	306.0000
802.99	311.2000
803.29	309.7000
803.60	307.7000
803.91	304.3000
804.21	303.9000
804.52	305.8000
804.82	304.0000
805.13	309.5000
805.44	307.7000
805.74	310.1000
806.05	310.1000
806.35	304.6000
806.66	298.3000
806.96	299.7000
807.27	294.6000
807.57	295.0000
807.88	292.1000
808.19	289.5000
808.49	289.5000
808.80	289.2000
809.10	284.6000
809.41	284.3000
809.71	281.6000
810.02	281.0000
810.32	278.6000
810.63	284.6000
810.93	281.1000
811.24	279.0000
811.54	276.8000
811.85	275.1000
812.15	275.2000
812.45	274.1000
812.76	272.2000
813.06	274.8000
813.37	276.6000
813.67	278.4000
813.98	270.6000
814.28	264.8000
814.58	267.7000
814.89	264.1000
815.19	264.8000
815.50	262.6000
815.80	265.3000
816.11	264.0000
816.41	264.2000
816.71	261.1000
817.02	262.0000
817.32	258.7000
817.62	258.2000
817.93	255.7000
818.23	253.0000
818.53	251.1000
818.84	254.1000
819.14	251.8000
819.44	252.8000
819.75	251.4000
820.05	253.4000
820.35	255.1000
820.66	252.4000
820.96	253.3000
821.26	251.1000
821.57	248.7000
821.87	244.2000
822.17	246.3000
822.48	246.7000
822.78	244.1000
823.08	239.8000
823.38	239.6000
823.69	239.5000
823.99	237.8000
824.29	236.0000
824.59	233.2000
824.90	240.4000
825.20	237.4000
825.50	236.9000
825.80	234.0000
826.10	237.0000
826.41	235.8000
826.71	234.3000
827.01	235.5000
827.31	237.0000
827.61	233.1000
827.92	233.1000
828.22	229.6000
828.52	228.8000
828.82	229.8000
829.12	226.9000
829.42	225.3000
829.73	226.9000
830.03	224.5000
830.33	222.8000
830.63	220.4000
830.93	219.4000
831.23	218.4000
831.53	220.3000
831.83	217.0000
832.14	215.7000
832.44	217.8000
832.74	217.1000
833.04	215.6000
833.34	218.4000
833.64	218.0000
833.94	214.9000
834.24	215.6000
834.54	216.2000
834.84	214.0000
835.14	212.2000
835.44	212.8000
835.74	210.8000
836.04	209.5000
836.34	210.3000
836.64	208.3000
836.95	208.0000
837.25	205.1000
837.55	206.5000
837.85	202.3000
838.15	203.8000
838.45	202.7000
838.74	202.5000
839.04	200.7000
839.34	202.0000
839.64	200.4000
839.94	198.8000
840.24	199.1000
840.54	199.4000
840.84	198.6000
841.14	196.1000
841.44	198.9000
841.74	199.3000
842.04	195.8000
842.34	194.6000
842.64	194.6000
842.94	195.3000
843.24	194.6000
843.53	192.5000
843.83	191.5000
844.13	192.4000
844.43	189.3000
844.73	190.7000
845.03	190.3000
845.33	189.2000
845.63	189.0000
845.92	186.2000
846.22	186.4000
846.52	187.1000
846.82	186.1000
847.12	185.3000
847.42	187.7000
847.71	185.5000
848.01	184.2000
848.31	182.1000
848.61	185.1000
848.91	180.5000
849.20	186.4000
849.50	183.2000
849.80	183.4000
850.10	181.4000
850.39	179.4000
850.69	178.7000
850.99	177.6000
851.29	177.2000
851.59	178.8000
851.88	179.3000
852.18	179.3000
852.48	177.6000
852.77	178.7000
853.07	180.9000
853.37	178.7000
853.67	179.4000
853.96	177.9000
854.26	179.2000
854.56	178.3000
854.85	175.9000
855.15	175.8000
855.45	174.0000
855.74	172.8000
856.04	171.1000
856.34	172.3000
856.63	172.8000
856.93	174.0000
857.23	172.0000
857.52	170.0000
857.82	171.3000
858.11	170.2000
858.41	168.3000
858.71	166.9000
859.00	167.8000
859.30	164.5000
859.59	165.4000
859.89	165.4000
860.19	162.4000
860.48	163.5000
860.78	163.0000
861.07	162.6000
861.37	163.8000
861.66	163.5000
861.96	162.0000
862.26	160.4000
862.55	161.6000
862.85	160.2000
863.14	161.4000
863.44	160.5000
863.73	158.9000
864.03	160.1000
864.32	159.1000
864.62	158.2000
864.91	157.3000
865.21	157.1000
865.50	154.6000
865.80	154.7000
866.09	154.1000
866.39	155.4000
866.68	154.0000
866.97	152.2000
867.27	153.4000
867.56	153.9000
867.86	152.2000
868.15	150.4000
868.45	149.9000
868.74	150.4000
869.03	151.1000
869.33	149.6000
869.62	149.4000
869.92	150.0000
870.21	146.9000
870.50	147.6000
870.80	145.0000
871.09	146.9000
871.39	145.3000
871.68	148.1000
871.97	145.7000
872.27	144.6000
872.56	144.1000
872.85	143.6000
873.15	141.3000
873.44	141.4000
873.73	144.4000
874.03	141.9000
874.32	141.6000
874.61	141.0000
874.90	140.4000
875.20	140.4000
875.49	140.6000
875.78	140.3000
>>>>>End Spectral Data<<<<<
