OOIBase32 Version 1.0.0.8 Data File
++++++++++++++++++++++++++++++++++++
Date: Monday, January 14, 1980, 01:38:29
User: Valued Ocean Optics Customer
Spectrometer Serial Number: Unknown
Spectrometer Channel: Master
Integration Time (msec): 3
Spectra Averaged: 10
Boxcar Smoothing: 0
Correct for Electrical Dark: Disabled
Time Normalized: Disabled
Dual-beam Reference: Disabled
Reference Channel: Master
>>>>>Begin Spectral Data<<<<<
179.00	0.0000
179.38	0.0000
179.75	82.1000
180.13	82.7000
180.51	82.2000
180.88	83.4000
181.26	83.0000
181.64	82.8000
182.02	84.8000
182.39	83.1000
182.77	82.2000
183.15	84.0000
183.52	84.3000
183.90	83.0000
184.28	82.4000
184.65	83.2000
185.03	82.6000
185.41	82.7000
185.78	82.5000
186.16	82.3000
186.53	82.5000
186.91	81.8000
187.29	80.8000
187.66	82.7000
188.04	83.8000
188.42	81.9000
188.79	82.3000
189.17	84.2000
189.55	83.9000
189.92	83.3000
190.30	83.4000
190.67	83.1000
191.05	83.3000
191.43	83.2000
191.80	82.7000
192.18	83.4000
192.56	83.9000
192.93	83.1000
193.31	84.0000
193.68	83.4000
194.06	82.8000
194.44	83.4000
194.81	82.0000
195.19	82.5000
195.56	83.8000
195.94	83.4000
196.32	84.9000
196.69	83.6000
197.07	82.6000
197.44	84.4000
197.82	82.9000
198.19	82.5000
198.57	84.5000
198.95	83.5000
199.32	85.1000
199.70	83.7000
200.07	84.2000
200.45	83.8000
200.82	82.5000
201.20	82.5000
201.57	81.9000
201.95	82.4000
202.33	83.2000
202.70	82.8000
203.08	83.1000
203.45	83.2000
203.83	83.0000
204.20	83.6000
204.58	83.5000
204.95	83.8000
205.33	82.5000
205.70	82.8000
206.08	85.4000
206.45	83.7000
206.83	83.8000
207.20	84.5000
207.58	85.1000
207.95	85.2000
208.33	82.6000
208.70	84.4000
209.08	82.5000
209.45	84.3000
209.83	83.0000
210.20	83.9000
210.58	82.8000
210.95	82.2000
211.33	81.1000
211.70	81.9000
212.08	83.2000
212.45	82.4000
212.83	83.6000
213.20	83.1000
213.58	83.2000
213.95	83.6000
214.33	85.2000
214.70	83.1000
215.07	82.9000
215.45	84.8000
215.82	83.5000
216.20	83.7000
216.57	83.5000
216.95	83.3000
217.32	83.7000
217.70	84.7000
218.07	82.6000
218.44	83.8000
218.82	82.3000
219.19	85.3000
219.57	85.2000
219.94	84.8000
220.32	84.0000
220.69	83.1000
221.06	82.2000
221.44	81.9000
221.81	82.4000
222.19	83.7000
222.56	83.7000
222.93	83.5000
223.31	82.3000
223.68	82.8000
224.06	81.8000
224.43	84.4000
224.80	84.1000
225.18	85.2000
225.55	83.8000
225.92	83.5000
226.30	82.6000
226.67	82.9000
227.05	82.8000
227.42	83.5000
227.79	84.0000
228.17	84.0000
228.54	84.3000
228.91	83.3000
229.29	82.6000
229.66	84.1000
230.03	84.0000
230.41	82.8000
230.78	83.2000
231.15	83.1000
231.53	82.3000
231.90	82.7000
232.27	82.9000
232.65	82.4000
233.02	84.3000
233.39	83.2000
233.77	83.0000
234.14	83.4000
234.51	83.4000
234.89	83.1000
235.26	84.2000
235.63	84.2000
236.01	83.2000
236.38	83.4000
236.75	83.7000
237.12	83.2000
237.50	83.4000
237.87	83.8000
238.24	83.6000
238.62	84.5000
238.99	83.3000
239.36	83.8000
239.73	82.7000
240.11	82.4000
240.48	83.2000
240.85	83.0000
241.23	83.1000
241.60	82.9000
241.97	83.8000
242.34	82.5000
242.72	82.9000
243.09	83.5000
243.46	83.2000
243.83	83.9000
244.21	82.0000
244.58	84.9000
244.95	83.3000
245.32	83.2000
245.70	83.8000
246.07	82.2000
246.44	82.9000
246.81	84.1000
247.18	83.8000
247.56	83.4000
247.93	82.7000
248.30	82.5000
248.67	84.7000
249.04	85.2000
249.42	83.2000
249.79	83.8000
250.16	83.8000
250.53	85.2000
250.90	82.9000
251.28	83.2000
251.65	83.8000
252.02	82.2000
252.39	84.8000
252.76	85.1000
253.14	83.4000
253.51	83.2000
253.88	83.3000
254.25	83.6000
254.62	83.6000
254.99	83.2000
255.37	84.1000
255.74	84.1000
256.11	82.2000
256.48	83.6000
256.85	84.5000
257.22	84.9000
257.59	84.8000
257.97	83.4000
258.34	82.7000
258.71	84.6000
259.08	84.2000
259.45	85.7000
259.82	83.8000
260.19	84.8000
260.56	82.0000
260.94	83.3000
261.31	83.1000
261.68	83.8000
262.05	83.9000
262.42	83.0000
262.79	83.4000
263.16	82.3000
263.53	84.4000
263.90	83.3000
264.28	83.2000
264.65	82.8000
265.02	83.7000
265.39	83.9000
265.76	84.0000
266.13	83.3000
266.50	82.8000
266.87	84.3000
267.24	83.7000
267.61	83.3000
267.98	83.4000
268.35	84.0000
268.72	84.1000
269.09	83.4000
269.46	83.2000
269.84	83.9000
270.21	84.2000
270.58	84.2000
270.95	83.3000
271.32	83.6000
271.69	83.9000
272.06	84.4000
272.43	84.3000
272.80	84.4000
273.17	83.3000
273.54	83.6000
273.91	83.0000
274.28	83.0000
274.65	83.5000
275.02	83.3000
275.39	83.1000
275.76	85.2000
276.13	83.6000
276.50	83.3000
276.87	82.5000
277.24	83.8000
277.61	83.7000
277.98	82.5000
278.35	83.2000
278.72	83.8000
279.09	82.0000
279.46	83.8000
279.83	83.3000
280.20	82.8000
280.57	84.2000
280.94	82.5000
281.31	83.3000
281.67	84.8000
282.04	83.6000
282.41	83.3000
282.78	83.9000
283.15	82.8000
283.52	83.4000
283.89	84.7000
284.26	83.9000
284.63	82.1000
285.00	83.3000
285.37	83.6000
285.74	83.9000
286.11	84.7000
286.48	82.7000
286.85	84.0000
287.21	83.5000
287.58	83.7000
287.95	83.7000
288.32	82.5000
288.69	82.7000
289.06	82.4000
289.43	83.1000
289.80	82.8000
290.17	83.4000
290.54	82.4000
290.90	83.8000
291.27	83.6000
291.64	83.0000
292.01	83.1000
292.38	83.4000
292.75	84.6000
293.12	83.1000
293.48	84.1000
293.85	84.1000
294.22	84.4000
294.59	83.2000
294.96	84.7000
295.33	83.5000
295.70	84.8000
296.06	83.5000
296.43	82.9000
296.80	84.0000
297.17	84.3000
297.54	83.6000
297.91	82.2000
298.27	84.2000
298.64	83.8000
299.01	83.4000
299.38	84.2000
299.75	85.3000
300.11	83.2000
300.48	82.9000
300.85	83.5000
301.22	84.1000
301.59	84.4000
301.95	83.1000
302.32	85.0000
302.69	84.5000
303.06	82.7000
303.43	82.4000
303.79	81.8000
304.16	83.0000
304.53	84.8000
304.90	81.8000
305.26	83.8000
305.63	83.7000
306.00	83.3000
306.37	84.1000
306.73	83.9000
307.10	83.4000
307.47	83.9000
307.84	82.8000
308.20	84.4000
308.57	82.5000
308.94	83.6000
309.31	85.1000
309.67	82.9000
310.04	84.4000
310.41	84.5000
310.77	82.9000
311.14	84.6000
311.51	84.8000
311.88	83.4000
312.24	83.3000
312.61	84.3000
312.98	82.8000
313.34	83.5000
313.71	81.4000
314.08	84.4000
314.44	83.2000
314.81	84.3000
315.18	83.1000
315.55	84.3000
315.91	84.0000
316.28	82.1000
316.65	83.6000
317.01	84.5000
317.38	83.2000
317.75	83.7000
318.11	82.4000
318.48	83.5000
318.84	82.9000
319.21	83.5000
319.58	82.3000
319.94	82.5000
320.31	83.1000
320.68	85.0000
321.04	83.9000
321.41	83.2000
321.78	82.9000
322.14	84.3000
322.51	83.1000
322.87	83.4000
323.24	83.0000
323.61	84.4000
323.97	84.2000
324.34	83.3000
324.70	84.2000
325.07	83.2000
325.44	83.5000
325.80	84.2000
326.17	83.6000
326.53	83.3000
326.90	83.1000
327.27	83.6000
327.63	84.1000
328.00	83.6000
328.36	83.5000
328.73	82.7000
329.09	82.9000
329.46	83.4000
329.83	83.1000
330.19	84.8000
330.56	83.4000
330.92	83.3000
331.29	83.2000
331.65	81.5000
332.02	83.3000
332.38	83.6000
332.75	83.6000
333.11	84.7000
333.48	83.3000
333.84	82.6000
334.21	84.0000
334.58	82.8000
334.94	83.3000
335.31	83.1000
335.67	83.1000
336.04	83.2000
336.40	83.1000
336.77	83.4000
337.13	83.4000
337.50	82.9000
337.86	84.2000
338.22	82.8000
338.59	83.6000
338.95	84.2000
339.32	83.1000
339.68	84.2000
340.05	83.3000
340.41	83.3000
340.78	83.8000
341.14	84.1000
341.51	84.1000
341.87	84.9000
342.24	83.8000
342.60	83.5000
342.96	83.2000
343.33	82.6000
343.69	82.8000
344.06	83.2000
344.42	83.6000
344.79	83.0000
345.15	83.6000
345.51	82.8000
345.88	83.2000
346.24	82.1000
346.61	82.4000
346.97	83.1000
347.34	84.1000
347.70	82.9000
348.06	82.5000
348.43	82.8000
348.79	83.8000
349.16	82.7000
349.52	83.3000
349.88	83.8000
350.25	84.2000
350.61	82.9000
350.97	83.1000
351.34	82.9000
351.70	82.3000
352.07	83.0000
352.43	84.1000
352.79	83.2000
353.16	83.0000
353.52	83.2000
353.88	83.5000
354.25	84.0000
354.61	84.1000
354.97	83.2000
355.34	85.4000
355.70	84.2000
356.06	83.5000
356.43	82.0000
356.79	83.5000
357.15	85.0000
357.52	83.6000
357.88	84.6000
358.24	85.4000
358.60	83.1000
358.97	83.3000
359.33	82.6000
359.69	82.1000
360.06	82.0000
360.42	83.3000
360.78	83.8000
361.14	83.7000
361.51	83.4000
361.87	84.7000
362.23	82.4000
362.60	83.3000
362.96	84.3000
363.32	83.1000
363.68	83.0000
364.05	85.2000
364.41	84.2000
364.77	84.4000
365.13	83.3000
365.50	84.4000
365.86	82.9000
366.22	84.8000
366.58	83.2000
366.95	82.4000
367.31	84.0000
367.67	83.3000
368.03	84.0000
368.39	84.2000
368.76	83.8000
369.12	84.8000
369.48	83.0000
369.84	83.4000
370.20	84.3000
370.57	84.1000
370.93	85.1000
371.29	84.3000
371.65	83.9000
372.01	83.8000
372.38	84.0000
372.74	82.3000
373.10	83.2000
373.46	81.9000
373.82	84.1000
374.18	84.1000
374.55	83.9000
374.91	83.1000
375.27	83.8000
375.63	83.0000
375.99	83.9000
376.35	83.1000
376.71	83.4000
377.08	83.3000
377.44	82.9000
377.80	83.4000
378.16	83.5000
378.52	82.3000
378.88	83.5000
379.24	83.7000
379.60	83.4000
379.97	84.5000
380.33	84.3000
380.69	82.9000
381.05	83.3000
381.41	85.1000
381.77	83.4000
382.13	83.4000
382.49	83.8000
382.85	83.1000
383.21	82.5000
383.57	82.4000
383.94	83.9000
384.30	84.4000
384.66	82.8000
385.02	85.0000
385.38	86.5000
385.74	84.2000
386.10	83.0000
386.46	83.6000
386.82	84.1000
387.18	84.3000
387.54	82.9000
387.90	84.9000
388.26	84.9000
388.62	83.0000
388.98	82.6000
389.34	83.7000
389.70	83.7000
390.06	83.3000
390.42	83.0000
390.78	84.1000
391.14	82.3000
391.50	84.6000
391.86	84.2000
392.22	83.5000
392.58	83.2000
392.94	84.6000
393.30	82.6000
393.66	83.5000
394.02	82.9000
394.38	83.3000
394.74	85.0000
395.10	85.4000
395.46	83.6000
395.82	83.0000
396.18	83.5000
396.54	83.5000
396.90	85.6000
397.26	85.3000
397.62	84.8000
397.98	84.2000
398.34	84.1000
398.70	83.8000
399.05	83.0000
399.41	83.5000
399.77	82.2000
400.13	83.6000
400.49	82.4000
400.85	84.5000
401.21	83.0000
401.57	83.9000
401.93	83.4000
402.29	82.9000
402.65	83.1000
403.00	83.6000
403.36	83.9000
403.72	82.0000
404.08	82.4000
404.44	83.2000
404.80	83.4000
405.16	84.6000
405.52	84.4000
405.87	83.1000
406.23	83.4000
406.59	82.0000
406.95	84.7000
407.31	83.3000
407.67	82.3000
408.03	83.8000
408.38	83.7000
408.74	84.6000
409.10	83.5000
409.46	82.4000
409.82	84.4000
410.17	84.0000
410.53	84.0000
410.89	82.5000
411.25	83.7000
411.61	83.7000
411.97	84.7000
412.32	82.0000
412.68	83.9000
413.04	82.9000
413.40	83.7000
413.75	83.9000
414.11	84.1000
414.47	85.1000
414.83	83.7000
415.19	84.4000
415.54	84.1000
415.90	84.0000
416.26	83.2000
416.62	84.1000
416.97	85.6000
417.33	83.5000
417.69	82.9000
418.05	82.8000
418.40	84.4000
418.76	84.0000
419.12	82.9000
419.48	84.0000
419.83	84.1000
420.19	82.8000
420.55	85.3000
420.90	82.6000
421.26	83.8000
421.62	83.0000
421.98	84.3000
422.33	83.6000
422.69	84.5000
423.05	82.9000
423.40	83.6000
423.76	83.7000
424.12	82.8000
424.47	84.1000
424.83	83.7000
425.19	83.2000
425.54	83.2000
425.90	83.9000
426.26	83.2000
426.61	83.2000
426.97	83.9000
427.33	83.3000
427.68	84.9000
428.04	84.0000
428.40	83.7000
428.75	82.8000
429.11	83.7000
429.47	82.5000
429.82	83.2000
430.18	84.6000
430.53	82.4000
430.89	84.4000
431.25	84.6000
431.60	84.5000
431.96	84.5000
432.31	84.2000
432.67	83.6000
433.03	82.9000
433.38	84.1000
433.74	85.2000
434.09	84.6000
434.45	83.1000
434.81	83.5000
435.16	83.5000
435.52	84.5000
435.87	84.2000
436.23	83.8000
436.58	83.3000
436.94	84.3000
437.30	83.4000
437.65	83.6000
438.01	83.9000
438.36	84.0000
438.72	83.8000
439.07	83.9000
439.43	83.4000
439.78	83.8000
440.14	83.6000
440.49	83.2000
440.85	85.1000
441.20	84.1000
441.56	84.4000
441.91	83.8000
442.27	84.5000
442.62	83.8000
442.98	83.5000
443.33	84.5000
443.69	84.9000
444.04	86.8000
444.40	85.8000
444.75	84.5000
445.11	84.6000
445.46	85.0000
445.82	84.8000
446.17	85.9000
446.53	84.7000
446.88	85.3000
447.23	85.2000
447.59	83.8000
447.94	84.3000
448.30	83.9000
448.65	84.8000
449.01	85.0000
449.36	85.1000
449.72	85.3000
450.07	83.0000
450.42	84.2000
450.78	83.7000
451.13	85.9000
451.49	85.8000
451.84	85.3000
452.19	85.3000
452.55	84.4000
452.90	86.7000
453.26	85.1000
453.61	85.8000
453.96	85.1000
454.32	84.6000
454.67	84.9000
455.02	85.9000
455.38	87.1000
455.73	84.8000
456.09	85.5000
456.44	85.0000
456.79	85.3000
457.15	84.3000
457.50	86.3000
457.85	86.1000
458.21	83.8000
458.56	84.7000
458.91	85.8000
459.27	84.0000
459.62	83.3000
459.97	84.7000
460.32	82.6000
460.68	84.3000
461.03	84.4000
461.38	85.3000
461.74	83.9000
462.09	84.2000
462.44	84.7000
462.80	84.4000
463.15	84.7000
463.50	84.7000
463.85	84.3000
464.21	85.2000
464.56	84.7000
464.91	84.1000
465.26	84.6000
465.62	84.2000
465.97	84.1000
466.32	84.6000
466.67	84.6000
467.03	83.3000
467.38	85.0000
467.73	83.9000
468.08	84.7000
468.44	84.6000
468.79	84.3000
469.14	83.7000
469.49	84.7000
469.85	84.5000
470.20	83.9000
470.55	85.3000
470.90	85.7000
471.25	84.7000
471.61	83.5000
471.96	85.0000
472.31	83.9000
472.66	84.1000
473.01	84.8000
473.36	83.4000
473.72	83.5000
474.07	83.0000
474.42	84.1000
474.77	84.2000
475.12	83.9000
475.47	83.0000
475.83	84.1000
476.18	83.5000
476.53	84.0000
476.88	83.6000
477.23	84.7000
477.58	84.0000
477.93	85.3000
478.28	83.0000
478.64	84.3000
478.99	84.0000
479.34	84.2000
479.69	84.8000
480.04	82.6000
480.39	84.3000
480.74	84.0000
481.09	82.3000
481.44	84.0000
481.79	83.3000
482.15	85.1000
482.50	84.1000
482.85	84.7000
483.20	83.8000
483.55	84.8000
483.90	84.8000
484.25	84.0000
484.60	83.7000
484.95	84.7000
485.30	84.2000
485.65	84.0000
486.00	84.0000
486.35	83.3000
486.70	84.5000
487.05	83.7000
487.40	83.9000
487.75	84.4000
488.10	83.9000
488.45	83.4000
488.80	84.9000
489.15	84.8000
489.50	83.4000
489.85	84.5000
490.20	85.0000
490.55	84.0000
490.90	84.6000
491.25	84.0000
491.60	84.4000
491.95	84.9000
492.30	83.8000
492.65	85.0000
493.00	84.4000
493.35	83.6000
493.70	83.6000
494.05	85.4000
494.40	86.1000
494.75	84.6000
495.10	83.8000
495.45	84.7000
495.80	85.1000
496.15	84.2000
496.50	84.4000
496.84	83.2000
497.19	83.7000
497.54	84.0000
497.89	83.8000
498.24	85.5000
498.59	84.5000
498.94	85.0000
499.29	85.5000
499.64	84.4000
499.99	85.3000
500.33	86.2000
500.68	84.0000
501.03	85.3000
501.38	84.3000
501.73	85.3000
502.08	83.8000
502.43	84.7000
502.77	84.7000
503.12	84.1000
503.47	85.0000
503.82	86.0000
504.17	85.6000
504.52	84.9000
504.86	85.0000
505.21	84.2000
505.56	83.8000
505.91	84.7000
506.26	85.8000
506.61	85.7000
506.95	84.2000
507.30	83.7000
507.65	84.8000
508.00	84.1000
508.35	84.9000
508.69	84.6000
509.04	85.9000
509.39	84.4000
509.74	85.4000
510.08	85.8000
510.43	85.8000
510.78	84.9000
511.13	85.7000
511.47	86.0000
511.82	84.3000
512.17	83.8000
512.52	84.8000
512.86	85.1000
513.21	84.7000
513.56	86.0000
513.91	86.2000
514.25	84.7000
514.60	85.3000
514.95	85.4000
515.30	84.5000
515.64	84.9000
515.99	86.2000
516.34	82.3000
516.68	84.5000
517.03	84.2000
517.38	84.1000
517.72	85.4000
518.07	85.5000
518.42	84.5000
518.76	85.4000
519.11	86.6000
519.46	84.3000
519.80	85.1000
520.15	85.0000
520.50	85.6000
520.84	84.5000
521.19	85.2000
521.54	85.2000
521.88	85.3000
522.23	85.9000
522.58	84.7000
522.92	85.8000
523.27	84.5000
523.61	85.7000
523.96	85.2000
524.31	85.9000
524.65	86.9000
525.00	85.2000
525.34	84.4000
525.69	86.2000
526.04	86.2000
526.38	83.5000
526.73	85.4000
527.07	84.1000
527.42	86.2000
527.76	84.9000
528.11	85.9000
528.46	85.6000
528.80	86.0000
529.15	85.1000
529.49	84.8000
529.84	87.0000
530.18	84.8000
530.53	86.0000
530.87	85.1000
531.22	85.4000
531.56	85.3000
531.91	86.3000
532.25	84.9000
532.60	85.2000
532.94	84.7000
533.29	85.8000
533.63	85.9000
533.98	85.7000
534.32	84.9000
534.67	86.0000
535.01	83.1000
535.36	83.5000
535.70	83.5000
536.05	84.8000
536.39	85.1000
536.74	83.9000
537.08	85.7000
537.43	86.5000
537.77	85.2000
538.12	84.6000
538.46	85.3000
538.80	84.8000
539.15	84.7000
539.49	85.5000
539.84	85.5000
540.18	84.0000
540.53	85.5000
540.87	85.2000
541.21	85.1000
541.56	86.2000
541.90	85.4000
542.25	86.2000
542.59	85.0000
542.93	84.9000
543.28	85.3000
543.62	86.7000
543.97	85.6000
544.31	85.4000
544.65	85.3000
545.00	83.1000
545.34	86.0000
545.68	86.0000
546.03	84.2000
546.37	84.4000
546.71	84.8000
547.06	86.2000
547.40	85.2000
547.74	85.5000
548.09	84.2000
548.43	85.7000
548.77	85.6000
549.12	84.3000
549.46	85.0000
549.80	86.8000
550.15	85.5000
550.49	85.4000
550.83	85.2000
551.17	86.0000
551.52	85.7000
551.86	85.2000
552.20	86.5000
552.55	85.1000
552.89	85.9000
553.23	84.6000
553.57	86.1000
553.92	85.6000
554.26	84.7000
554.60	85.1000
554.94	85.0000
555.29	86.5000
555.63	85.9000
555.97	85.7000
556.31	85.8000
556.66	84.0000
557.00	86.6000
557.34	85.2000
557.68	84.2000
558.02	84.4000
558.37	85.1000
558.71	84.5000
559.05	85.0000
559.39	86.8000
559.73	84.5000
560.08	84.5000
560.42	85.4000
560.76	85.3000
561.10	85.5000
561.44	84.6000
561.78	86.9000
562.13	86.3000
562.47	84.8000
562.81	84.5000
563.15	84.4000
563.49	86.0000
563.83	85.6000
564.17	85.6000
564.52	84.8000
564.86	83.5000
565.20	85.2000
565.54	85.7000
565.88	85.9000
566.22	85.1000
566.56	86.5000
566.90	85.3000
567.24	85.4000
567.59	83.6000
567.93	83.6000
568.27	84.6000
568.61	86.0000
568.95	86.4000
569.29	86.1000
569.63	84.6000
569.97	86.2000
570.31	85.0000
570.65	86.1000
570.99	84.9000
571.33	85.8000
571.67	85.9000
572.01	86.6000
572.35	85.2000
572.69	83.4000
573.03	85.1000
573.37	85.4000
573.71	86.6000
574.05	85.2000
574.39	84.9000
574.73	85.4000
575.07	85.4000
575.41	86.0000
575.75	84.7000
576.09	85.7000
576.43	86.0000
576.77	86.2000
577.11	85.4000
577.45	84.6000
577.79	84.6000
578.13	86.2000
578.47	85.5000
578.81	84.8000
579.15	85.9000
579.49	85.7000
579.83	84.9000
580.17	85.8000
580.51	85.4000
580.85	84.7000
581.19	85.8000
581.53	85.3000
581.87	86.2000
582.20	84.7000
582.54	85.3000
582.88	86.4000
583.22	85.5000
583.56	86.1000
583.90	85.8000
584.24	85.9000
584.58	86.2000
584.92	85.7000
585.25	84.3000
585.59	84.5000
585.93	86.7000
586.27	86.2000
586.61	84.8000
586.95	85.5000
587.29	85.0000
587.62	84.8000
587.96	84.7000
588.30	83.3000
588.64	86.2000
588.98	86.3000
589.31	86.4000
589.65	84.6000
589.99	85.1000
590.33	84.3000
590.67	84.8000
591.01	85.8000
591.34	84.6000
591.68	84.6000
592.02	86.7000
592.36	86.1000
592.69	84.8000
593.03	85.4000
593.37	85.5000
593.71	85.8000
594.04	83.8000
594.38	85.6000
594.72	84.2000
595.06	85.3000
595.39	85.0000
595.73	85.6000
596.07	85.4000
596.41	87.0000
596.74	86.8000
597.08	84.5000
597.42	84.4000
597.76	84.3000
598.09	84.3000
598.43	84.1000
598.77	86.5000
599.10	85.8000
599.44	85.9000
599.78	85.5000
600.11	83.9000
600.45	84.8000
600.79	83.1000
601.12	84.4000
601.46	85.3000
601.80	84.2000
602.13	85.0000
602.47	85.7000
602.81	83.5000
603.14	84.4000
603.48	85.1000
603.82	84.4000
604.15	84.6000
604.49	84.7000
604.82	84.8000
605.16	85.9000
605.50	84.8000
605.83	83.8000
606.17	84.3000
606.50	85.7000
606.84	85.9000
607.18	85.1000
607.51	85.5000
607.85	85.1000
608.18	83.3000
608.52	85.4000
608.86	85.2000
609.19	83.8000
609.53	84.1000
609.86	84.6000
610.20	83.9000
610.53	86.0000
610.87	84.5000
611.20	84.2000
611.54	84.3000
611.87	85.5000
612.21	84.8000
612.54	84.1000
612.88	85.8000
613.21	84.7000
613.55	83.5000
613.88	84.4000
614.22	84.7000
614.55	84.0000
614.89	83.9000
615.22	85.6000
615.56	84.4000
615.89	84.3000
616.23	84.0000
616.56	83.2000
616.90	83.7000
617.23	84.5000
617.57	83.1000
617.90	84.0000
618.24	84.3000
618.57	84.1000
618.90	84.8000
619.24	84.3000
619.57	84.1000
619.91	84.2000
620.24	85.0000
620.58	84.5000
620.91	85.8000
621.24	85.7000
621.58	85.1000
621.91	84.5000
622.25	84.2000
622.58	84.8000
622.91	84.5000
623.25	84.2000
623.58	84.8000
623.91	86.9000
624.25	83.6000
624.58	84.4000
624.92	85.8000
625.25	84.7000
625.58	85.1000
625.92	85.9000
626.25	84.5000
626.58	84.3000
626.92	84.0000
627.25	83.4000
627.58	84.1000
627.91	84.6000
628.25	85.4000
628.58	83.9000
628.91	84.4000
629.25	84.5000
629.58	84.1000
629.91	85.6000
630.25	84.8000
630.58	84.5000
630.91	85.2000
631.24	84.6000
631.58	84.8000
631.91	85.4000
632.24	85.0000
632.57	85.5000
632.91	84.1000
633.24	83.5000
633.57	85.2000
633.90	85.6000
634.24	83.5000
634.57	83.0000
634.90	84.2000
635.23	84.7000
635.56	84.0000
635.90	85.2000
636.23	84.6000
636.56	83.3000
636.89	84.5000
637.22	84.1000
637.56	84.1000
637.89	83.6000
638.22	83.8000
638.55	84.7000
638.88	83.9000
639.21	84.5000
639.55	84.6000
639.88	84.0000
640.21	84.6000
640.54	84.1000
640.87	83.6000
641.20	83.8000
641.53	84.7000
641.87	83.0000
642.20	85.4000
642.53	83.8000
642.86	85.0000
643.19	83.9000
643.52	83.1000
643.85	84.4000
644.18	83.3000
644.51	83.6000
644.84	85.2000
645.18	84.5000
645.51	83.8000
645.84	84.5000
646.17	83.0000
646.50	84.1000
646.83	84.0000
647.16	84.3000
647.49	83.4000
647.82	86.0000
648.15	84.9000
648.48	84.0000
648.81	83.4000
649.14	83.3000
649.47	83.3000
649.80	83.8000
650.13	84.3000
650.46	84.5000
650.79	85.0000
651.12	84.4000
651.45	85.0000
651.78	85.6000
652.11	84.5000
652.44	82.2000
652.77	83.6000
653.10	83.2000
653.43	82.6000
653.76	84.6000
654.09	85.0000
654.42	84.0000
654.75	84.2000
655.08	86.0000
655.41	84.2000
655.74	85.1000
656.07	82.9000
656.39	83.7000
656.72	82.7000
657.05	84.2000
657.38	84.1000
657.71	85.1000
658.04	83.9000
658.37	83.0000
658.70	84.1000
659.03	83.1000
659.36	83.7000
659.68	85.2000
660.01	83.4000
660.34	84.3000
660.67	83.6000
661.00	82.5000
661.33	85.1000
661.66	85.2000
661.98	86.1000
662.31	83.9000
662.64	84.5000
662.97	82.9000
663.30	84.4000
663.63	84.6000
663.95	82.2000
664.28	83.1000
664.61	82.9000
664.94	85.3000
665.27	83.8000
665.59	83.3000
665.92	84.8000
666.25	83.7000
666.58	83.7000
666.91	84.0000
667.23	84.5000
667.56	85.0000
667.89	83.7000
668.22	83.9000
668.54	84.0000
668.87	83.4000
669.20	83.5000
669.53	84.3000
669.85	82.2000
670.18	83.5000
670.51	83.7000
670.83	85.4000
671.16	83.7000
671.49	84.2000
671.82	84.1000
672.14	83.9000
672.47	84.2000
672.80	83.2000
673.12	83.2000
673.45	83.5000
673.78	83.5000
674.10	83.5000
674.43	84.8000
674.76	85.0000
675.08	84.3000
675.41	82.7000
675.74	85.0000
676.06	83.8000
676.39	84.4000
676.72	83.0000
677.04	84.2000
677.37	84.2000
677.69	84.4000
678.02	85.4000
678.35	83.0000
678.67	83.4000
679.00	83.4000
679.32	83.7000
679.65	82.7000
679.98	83.1000
680.30	83.5000
680.63	85.1000
680.95	84.3000
681.28	82.8000
681.60	83.3000
681.93	83.7000
682.26	81.9000
682.58	83.8000
682.91	83.8000
683.23	84.5000
683.56	82.7000
683.88	83.1000
684.21	83.2000
684.53	83.0000
684.86	83.0000
685.18	84.1000
685.51	83.4000
685.83	83.1000
686.16	83.5000
686.48	83.2000
686.81	83.6000
687.13	83.5000
687.46	84.7000
687.78	84.0000
688.11	84.2000
688.43	84.3000
688.76	83.4000
689.08	83.3000
689.41	83.9000
689.73	84.4000
690.05	82.7000
690.38	83.9000
690.70	83.0000
691.03	83.0000
691.35	84.0000
691.68	83.8000
692.00	84.0000
692.32	83.6000
692.65	83.7000
692.97	83.9000
693.29	82.7000
693.62	84.6000
693.94	81.7000
694.27	82.7000
694.59	83.3000
694.91	82.4000
695.24	85.0000
695.56	84.2000
695.88	85.6000
696.21	84.0000
696.53	85.3000
696.85	82.7000
697.18	82.4000
697.50	84.4000
697.82	83.0000
698.15	84.0000
698.47	81.9000
698.79	84.0000
699.12	83.7000
699.44	84.0000
699.76	84.8000
700.09	84.6000
700.41	83.6000
700.73	84.1000
701.05	84.7000
701.38	83.5000
701.70	84.4000
702.02	83.2000
702.34	83.0000
702.67	84.7000
702.99	83.9000
703.31	82.9000
703.63	84.5000
703.96	83.9000
704.28	83.8000
704.60	83.9000
704.92	84.2000
705.25	85.6000
705.57	85.8000
705.89	83.3000
706.21	84.1000
706.53	84.0000
706.86	83.9000
707.18	83.2000
707.50	81.4000
707.82	83.8000
708.14	84.6000
708.46	85.2000
708.79	84.9000
709.11	83.7000
709.43	83.2000
709.75	82.2000
710.07	83.4000
710.39	84.7000
710.71	82.7000
711.04	83.3000
711.36	83.4000
711.68	84.0000
712.00	83.7000
712.32	83.1000
712.64	82.9000
712.96	83.7000
713.28	83.8000
713.60	84.6000
713.92	84.2000
714.24	83.9000
714.57	82.3000
714.89	83.5000
715.21	82.3000
715.53	82.4000
715.85	84.4000
716.17	82.7000
716.49	83.1000
716.81	84.0000
717.13	82.8000
717.45	82.7000
717.77	85.1000
718.09	82.6000
718.41	84.3000
718.73	85.0000
719.05	82.8000
719.37	85.3000
719.69	82.4000
720.01	83.7000
720.33	83.2000
720.65	83.1000
720.97	83.1000
721.29	82.4000
721.61	83.6000
721.93	82.9000
722.25	83.2000
722.57	85.4000
722.89	84.4000
723.21	83.0000
723.52	84.0000
723.84	84.0000
724.16	81.7000
724.48	83.6000
724.80	83.0000
725.12	83.9000
725.44	82.3000
725.76	83.4000
726.08	83.1000
726.40	82.5000
726.72	82.5000
727.03	83.4000
727.35	82.2000
727.67	84.1000
727.99	82.5000
728.31	82.8000
728.63	83.4000
728.95	83.9000
729.26	83.7000
729.58	83.2000
729.90	83.5000
730.22	83.5000
730.54	84.8000
730.86	84.1000
731.17	84.0000
731.49	84.6000
731.81	82.8000
732.13	83.3000
732.45	83.8000
732.76	84.2000
733.08	84.4000
733.40	83.6000
733.72	83.5000
734.03	83.8000
734.35	83.5000
734.67	82.8000
734.99	84.9000
735.30	82.6000
735.62	82.9000
735.94	82.4000
736.26	83.0000
736.57	84.4000
736.89	84.7000
737.21	84.6000
737.53	84.4000
737.84	83.9000
738.16	85.2000
738.48	83.9000
738.79	83.0000
739.11	82.9000
739.43	84.7000
739.74	82.7000
740.06	84.0000
740.38	83.0000
740.69	82.8000
741.01	83.4000
741.33	84.4000
741.64	83.5000
741.96	83.5000
742.28	84.8000
742.59	84.0000
742.91	82.1000
743.23	84.4000
743.54	84.7000
743.86	83.6000
744.17	83.6000
744.49	82.2000
744.81	83.8000
745.12	84.3000
745.44	84.1000
745.75	83.5000
746.07	82.8000
746.38	85.0000
746.70	84.7000
747.02	82.6000
747.33	83.3000
747.65	83.4000
747.96	83.9000
748.28	83.2000
748.59	81.8000
748.91	83.3000
749.22	82.8000
749.54	81.9000
749.85	83.1000
750.17	83.6000
750.48	84.6000
750.80	85.1000
751.11	82.7000
751.43	83.7000
751.74	83.7000
752.06	83.7000
752.37	84.5000
752.69	83.8000
753.00	82.9000
753.32	82.6000
753.63	83.6000
753.95	83.3000
754.26	84.0000
754.58	84.6000
754.89	84.8000
755.20	84.1000
755.52	83.8000
755.83	84.1000
756.15	82.7000
756.46	82.7000
756.78	83.3000
757.09	84.0000
757.40	83.3000
757.72	82.7000
758.03	82.5000
758.34	84.6000
758.66	83.6000
758.97	83.5000
759.29	83.0000
759.60	82.8000
759.91	83.0000
760.23	83.9000
760.54	84.7000
760.85	83.9000
761.17	84.0000
761.48	83.8000
761.79	83.5000
762.11	84.3000
762.42	82.7000
762.73	84.0000
763.05	84.6000
763.36	83.3000
763.67	82.8000
763.98	83.8000
764.30	82.9000
764.61	83.2000
764.92	84.0000
765.23	84.3000
765.55	83.7000
765.86	83.5000
766.17	85.4000
766.48	84.1000
766.80	83.8000
767.11	83.5000
767.42	83.7000
767.73	83.4000
768.05	83.0000
768.36	85.2000
768.67	83.8000
768.98	82.8000
769.29	84.1000
769.61	83.9000
769.92	83.1000
770.23	82.2000
770.54	83.9000
770.85	82.4000
771.17	84.2000
771.48	83.9000
771.79	83.5000
772.10	83.8000
772.41	84.1000
772.72	83.0000
773.03	83.9000
773.35	83.1000
773.66	83.6000
773.97	83.0000
774.28	82.9000
774.59	84.2000
774.90	84.6000
775.21	84.6000
775.52	83.0000
775.83	84.7000
776.15	83.5000
776.46	83.6000
776.77	83.4000
777.08	81.3000
777.39	83.0000
777.70	84.9000
778.01	82.2000
778.32	82.5000
778.63	84.1000
778.94	83.5000
779.25	84.1000
779.56	84.2000
779.87	84.1000
780.18	82.4000
780.49	84.3000
780.80	84.0000
781.11	82.6000
781.42	83.2000
781.73	83.5000
782.04	83.0000
782.35	83.4000
782.66	81.7000
782.97	83.3000
783.28	83.0000
783.59	82.8000
783.90	81.9000
784.21	84.9000
784.52	84.6000
784.83	83.8000
785.14	84.3000
785.45	83.4000
785.76	85.4000
786.06	82.8000
786.37	83.7000
786.68	82.4000
786.99	83.7000
787.30	82.2000
787.61	83.2000
787.92	83.6000
788.23	84.0000
788.54	84.8000
788.84	84.4000
789.15	82.7000
789.46	84.1000
789.77	82.4000
790.08	83.0000
790.39	82.9000
790.70	84.2000
791.00	84.3000
791.31	84.1000
791.62	84.2000
791.93	85.4000
792.24	84.3000
792.54	83.0000
792.85	83.9000
793.16	85.2000
793.47	83.7000
793.78	82.9000
794.08	83.1000
794.39	83.0000
794.70	84.3000
795.01	81.1000
795.31	83.3000
795.62	83.0000
795.93	82.3000
796.24	85.3000
796.54	82.8000
796.85	84.4000
797.16	82.9000
797.47	82.9000
797.77	83.3000
798.08	83.8000
798.39	82.9000
798.69	83.1000
799.00	84.6000
799.31	83.9000
799.62	84.0000
799.92	83.2000
800.23	84.2000
800.54	82.1000
800.84	83.4000
801.15	83.9000
801.46	82.3000
801.76	82.4000
802.07	84.0000
802.37	83.1000
802.68	83.3000
802.99	83.5000
803.29	84.9000
803.60	83.9000
803.91	83.9000
804.21	84.9000
804.52	84.8000
804.82	84.2000
805.13	82.4000
805.44	84.2000
805.74	83.0000
806.05	83.3000
806.35	82.8000
806.66	84.4000
806.96	84.5000
807.27	83.7000
807.57	82.4000
807.88	82.9000
808.19	84.9000
808.49	83.3000
808.80	82.6000
809.10	83.2000
809.41	83.7000
809.71	83.2000
810.02	84.6000
810.32	84.3000
810.63	83.9000
810.93	83.4000
811.24	83.2000
811.54	82.1000
811.85	84.1000
812.15	82.1000
812.45	83.0000
812.76	83.6000
813.06	82.7000
813.37	82.7000
813.67	83.8000
813.98	83.4000
814.28	83.8000
814.58	83.7000
814.89	83.7000
815.19	83.9000
815.50	83.1000
815.80	83.7000
816.11	84.6000
816.41	83.9000
816.71	83.3000
817.02	83.3000
817.32	83.0000
817.62	84.4000
817.93	85.1000
818.23	83.9000
818.53	84.6000
818.84	83.6000
819.14	82.0000
819.44	83.0000
819.75	83.0000
820.05	83.8000
820.35	83.6000
820.66	84.8000
820.96	83.6000
821.26	82.8000
821.57	83.7000
821.87	83.7000
822.17	84.0000
822.48	85.0000
822.78	84.4000
823.08	83.2000
823.38	82.5000
823.69	85.5000
823.99	84.9000
824.29	83.3000
824.59	83.2000
824.90	83.9000
825.20	83.4000
825.50	83.4000
825.80	83.9000
826.10	84.3000
826.41	84.2000
826.71	83.4000
827.01	84.2000
827.31	84.4000
827.61	84.7000
827.92	83.7000
828.22	82.7000
828.52	83.0000
828.82	83.4000
829.12	83.6000
829.42	83.8000
829.73	84.8000
830.03	82.9000
830.33	82.4000
830.63	83.5000
830.93	84.0000
831.23	83.7000
831.53	84.0000
831.83	83.1000
832.14	82.9000
832.44	84.2000
832.74	83.8000
833.04	84.1000
833.34	83.5000
833.64	83.8000
833.94	84.7000
834.24	83.6000
834.54	82.4000
834.84	83.2000
835.14	84.1000
835.44	83.5000
835.74	83.4000
836.04	82.6000
836.34	84.7000
836.64	84.2000
836.95	83.2000
837.25	82.4000
837.55	83.6000
837.85	83.3000
838.15	83.0000
838.45	82.4000
838.74	82.2000
839.04	84.0000
839.34	84.0000
839.64	83.1000
839.94	83.8000
840.24	84.2000
840.54	83.8000
840.84	82.7000
841.14	82.1000
841.44	83.8000
841.74	84.4000
842.04	83.9000
842.34	82.4000
842.64	84.9000
842.94	84.5000
843.24	82.9000
843.53	83.1000
843.83	82.7000
844.13	83.6000
844.43	83.8000
844.73	85.7000
845.03	84.3000
845.33	83.7000
845.63	84.4000
845.92	82.7000
846.22	85.3000
846.52	84.0000
846.82	82.7000
847.12	83.7000
847.42	82.6000
847.71	83.4000
848.01	83.4000
848.31	83.9000
848.61	82.5000
848.91	83.9000
849.20	82.8000
849.50	84.4000
849.80	83.9000
850.10	83.6000
850.39	83.3000
850.69	84.8000
850.99	83.0000
851.29	83.9000
851.59	85.1000
851.88	84.5000
852.18	82.7000
852.48	83.2000
852.77	84.3000
853.07	83.2000
853.37	84.1000
853.67	83.6000
853.96	83.9000
854.26	84.0000
854.56	84.2000
854.85	83.4000
855.15	83.8000
855.45	84.0000
855.74	83.0000
856.04	83.5000
856.34	83.7000
856.63	82.8000
856.93	85.3000
857.23	84.1000
857.52	83.6000
857.82	83.9000
858.11	82.5000
858.41	83.1000
858.71	83.8000
859.00	84.4000
859.30	85.2000
859.59	84.0000
859.89	82.4000
860.19	83.1000
860.48	83.4000
860.78	84.8000
861.07	83.1000
861.37	82.7000
861.66	82.4000
861.96	83.3000
862.26	84.0000
862.55	84.9000
862.85	83.7000
863.14	83.2000
863.44	83.9000
863.73	82.7000
864.03	84.3000
864.32	82.6000
864.62	83.4000
864.91	84.0000
865.21	83.3000
865.50	84.6000
865.80	82.0000
866.09	82.8000
866.39	83.6000
866.68	82.5000
866.97	83.2000
867.27	83.6000
867.56	82.5000
867.86	84.3000
868.15	82.6000
868.45	83.4000
868.74	83.6000
869.03	83.8000
869.33	83.1000
869.62	84.0000
869.92	83.4000
870.21	83.8000
870.50	84.2000
870.80	83.6000
871.09	83.2000
871.39	82.7000
871.68	82.8000
871.97	84.2000
872.27	84.0000
872.56	82.7000
872.85	83.7000
873.15	84.2000
873.44	83.9000
873.73	83.1000
874.03	84.7000
874.32	83.9000
874.61	81.9000
874.90	83.4000
875.20	85.7000
875.49	83.1000
875.78	83.1000
>>>>>End Spectral Data<<<<<
