OOIBase32 Version 1.0.0.8 Data File
++++++++++++++++++++++++++++++++++++
Date: Wednesday, January 23, 1980, 02:14:10
User: Valued Ocean Optics Customer
Spectrometer Serial Number: Unknown
Spectrometer Channel: Master
Integration Time (msec): 3
Spectra Averaged: 20
Boxcar Smoothing: 0
Correct for Electrical Dark: Disabled
Time Normalized: Disabled
Dual-beam Reference: Disabled
Reference Channel: Master
>>>>>Begin Spectral Data<<<<<
179.00	0.0000
179.38	0.0000
179.75	67.3500
180.13	66.3000
180.51	67.4500
180.88	67.8000
181.26	68.7500
181.64	69.0500
182.02	68.2000
182.39	67.8500
182.77	68.5000
183.15	68.3000
183.52	68.1500
183.90	68.4000
184.28	67.9000
184.65	67.0500
185.03	66.4500
185.41	67.1000
185.78	68.4000
186.16	67.5500
186.53	66.8500
186.91	68.0500
187.29	68.1500
187.66	68.0000
188.04	69.2000
188.42	71.4000
188.79	71.6000
189.17	71.7000
189.55	71.4500
189.92	71.8000
190.30	71.8500
190.67	72.6000
191.05	70.3500
191.43	71.9000
191.80	71.8500
192.18	70.9000
192.56	71.4000
192.93	72.2000
193.31	72.7000
193.68	73.5000
194.06	71.5000
194.44	72.8000
194.81	72.9000
195.19	72.0500
195.56	72.7000
195.94	73.4500
196.32	71.6500
196.69	73.1000
197.07	72.4500
197.44	72.0500
197.82	72.7000
198.19	72.4000
198.57	72.1500
198.95	72.5500
199.32	71.1000
199.70	71.3000
200.07	71.8500
200.45	72.1000
200.82	72.5500
201.20	71.9000
201.57	72.8000
201.95	72.4000
202.33	72.4000
202.70	72.9000
203.08	73.0500
203.45	73.5000
203.83	73.1000
204.20	71.7000
204.58	72.3500
204.95	71.3500
205.33	72.1000
205.70	71.9500
206.08	72.5500
206.45	72.0000
206.83	71.9000
207.20	73.1500
207.58	71.9000
207.95	72.3500
208.33	72.0000
208.70	73.2500
209.08	71.9500
209.45	71.9500
209.83	72.6500
210.20	72.2500
210.58	72.1000
210.95	72.5500
211.33	73.0500
211.70	72.6500
212.08	73.0000
212.45	73.4500
212.83	72.4000
213.20	72.8500
213.58	73.7000
213.95	72.1000
214.33	71.6500
214.70	73.0000
215.07	72.4000
215.45	73.3000
215.82	72.7000
216.20	72.1500
216.57	72.4000
216.95	71.8500
217.32	73.2000
217.70	73.1500
218.07	73.3000
218.44	72.7000
218.82	72.2500
219.19	73.0500
219.57	72.4500
219.94	72.4500
220.32	71.8500
220.69	72.5500
221.06	72.1000
221.44	73.0000
221.81	73.2500
222.19	73.5000
222.56	72.9500
222.93	73.1000
223.31	72.9500
223.68	72.5500
224.06	73.3000
224.43	72.6000
224.80	73.1000
225.18	72.4500
225.55	72.4500
225.92	72.6500
226.30	73.0500
226.67	72.6500
227.05	73.0000
227.42	72.5500
227.79	73.1500
228.17	71.8500
228.54	71.8000
228.91	72.9500
229.29	73.5000
229.66	73.0500
230.03	72.9500
230.41	73.0500
230.78	71.7000
231.15	73.5000
231.53	72.7500
231.90	72.8500
232.27	73.0000
232.65	72.9500
233.02	73.9000
233.39	72.9000
233.77	73.3000
234.14	72.4500
234.51	72.6500
234.89	72.8000
235.26	72.4500
235.63	71.7500
236.01	73.3500
236.38	71.3000
236.75	72.0000
237.12	72.9000
237.50	71.8500
237.87	73.6500
238.24	73.3000
238.62	72.9000
238.99	72.7000
239.36	73.4000
239.73	72.8000
240.11	73.5500
240.48	72.6500
240.85	72.7500
241.23	72.8000
241.60	73.1500
241.97	72.5500
242.34	73.2000
242.72	73.6000
243.09	73.3500
243.46	72.7000
243.83	72.5500
244.21	72.5000
244.58	73.2000
244.95	72.8500
245.32	72.2500
245.70	73.3000
246.07	72.9500
246.44	72.9500
246.81	72.0000
247.18	72.9000
247.56	72.7500
247.93	72.8000
248.30	73.6000
248.67	71.6000
249.04	73.5000
249.42	73.0500
249.79	73.5000
250.16	73.3500
250.53	73.2000
250.90	74.7500
251.28	73.3000
251.65	72.8000
252.02	73.0000
252.39	73.9500
252.76	73.8500
253.14	73.1500
253.51	73.1000
253.88	72.5000
254.25	72.5500
254.62	72.7000
254.99	73.2500
255.37	72.8000
255.74	73.2500
256.11	72.6500
256.48	72.8000
256.85	73.4000
257.22	74.6000
257.59	73.4500
257.97	72.9500
258.34	73.8000
258.71	73.5000
259.08	72.8000
259.45	73.9000
259.82	73.3000
260.19	73.4000
260.56	73.8500
260.94	73.2500
261.31	73.3500
261.68	73.9000
262.05	73.5500
262.42	73.5500
262.79	74.4000
263.16	73.9000
263.53	73.7000
263.90	73.8000
264.28	74.4000
264.65	74.4500
265.02	75.3000
265.39	73.7500
265.76	74.3000
266.13	74.1000
266.50	74.2000
266.87	73.4000
267.24	72.5000
267.61	74.4500
267.98	73.5000
268.35	74.4000
268.72	73.9500
269.09	73.7500
269.46	72.6000
269.84	74.3500
270.21	74.9500
270.58	72.9500
270.95	74.1500
271.32	73.6500
271.69	72.9500
272.06	73.1500
272.43	73.4500
272.80	74.1000
273.17	73.2500
273.54	74.0000
273.91	72.6500
274.28	73.9000
274.65	74.6500
275.02	74.1000
275.39	74.9000
275.76	74.0000
276.13	75.1500
276.50	73.8500
276.87	73.8000
277.24	73.2500
277.61	74.2000
277.98	73.8000
278.35	74.3500
278.72	73.6000
279.09	73.6500
279.46	74.0000
279.83	73.7500
280.20	73.9500
280.57	73.3500
280.94	73.5000
281.31	74.0500
281.67	72.8500
282.04	74.0500
282.41	74.0000
282.78	73.8500
283.15	73.2500
283.52	73.5500
283.89	74.4500
284.26	73.7000
284.63	74.2500
285.00	73.3000
285.37	74.4500
285.74	72.6000
286.11	74.6000
286.48	73.6500
286.85	73.2500
287.21	74.1000
287.58	72.9500
287.95	73.8000
288.32	74.6500
288.69	75.1000
289.06	74.1500
289.43	73.2500
289.80	73.5500
290.17	73.7500
290.54	73.7000
290.90	75.0500
291.27	75.0500
291.64	72.8500
292.01	73.7500
292.38	74.2500
292.75	73.5000
293.12	74.0500
293.48	73.8000
293.85	74.3500
294.22	74.6500
294.59	73.8000
294.96	73.6500
295.33	73.5500
295.70	74.6000
296.06	74.5500
296.43	73.5500
296.80	72.9000
297.17	74.5500
297.54	75.2000
297.91	74.9000
298.27	73.9000
298.64	74.1500
299.01	74.5000
299.38	75.8000
299.75	75.1500
300.11	75.2000
300.48	74.6500
300.85	73.6500
301.22	72.9500
301.59	74.1500
301.95	75.3000
302.32	75.3000
302.69	74.1000
303.06	74.6000
303.43	74.3500
303.79	74.6500
304.16	75.3000
304.53	74.7500
304.90	74.9500
305.26	74.3500
305.63	74.0500
306.00	74.1500
306.37	73.8500
306.73	75.3000
307.10	74.3000
307.47	73.5500
307.84	73.8500
308.20	74.3500
308.57	75.3000
308.94	73.8500
309.31	73.1500
309.67	75.0000
310.04	74.5000
310.41	74.4000
310.77	75.0000
311.14	74.6000
311.51	74.0000
311.88	74.2500
312.24	74.7500
312.61	74.1500
312.98	73.8000
313.34	74.4000
313.71	74.4000
314.08	73.7000
314.44	74.4000
314.81	73.7500
315.18	74.7500
315.55	74.5000
315.91	75.0500
316.28	74.3500
316.65	73.6500
317.01	75.0000
317.38	75.2500
317.75	74.6000
318.11	74.7500
318.48	74.2000
318.84	74.6000
319.21	74.6000
319.58	75.3000
319.94	74.8000
320.31	74.9500
320.68	75.0500
321.04	74.5000
321.41	75.7000
321.78	75.6000
322.14	75.2000
322.51	74.9000
322.87	75.1000
323.24	74.0500
323.61	74.1500
323.97	75.6000
324.34	74.2000
324.70	75.0000
325.07	76.1000
325.44	75.3000
325.80	74.2500
326.17	73.9000
326.53	74.0000
326.90	74.9000
327.27	75.1500
327.63	74.1000
328.00	74.7500
328.36	75.4500
328.73	76.1500
329.09	75.3500
329.46	75.3000
329.83	74.7000
330.19	75.6500
330.56	74.4000
330.92	74.5000
331.29	75.9500
331.65	74.5500
332.02	75.0500
332.38	75.1500
332.75	74.2000
333.11	75.2000
333.48	75.4000
333.84	75.2000
334.21	75.1000
334.58	74.4500
334.94	74.2500
335.31	75.0000
335.67	74.1500
336.04	74.4500
336.40	74.8000
336.77	74.9000
337.13	75.1500
337.50	76.0000
337.86	75.4000
338.22	75.4000
338.59	74.6000
338.95	76.2000
339.32	76.0500
339.68	75.8500
340.05	74.5000
340.41	75.4000
340.78	75.9000
341.14	75.5500
341.51	76.0500
341.87	75.6000
342.24	75.6000
342.60	75.2000
342.96	74.5000
343.33	75.6500
343.69	75.7000
344.06	76.1500
344.42	75.1500
344.79	74.6000
345.15	76.0500
345.51	74.9000
345.88	74.8000
346.24	76.5000
346.61	76.1000
346.97	75.2000
347.34	77.2000
347.70	76.0500
348.06	76.5000
348.43	75.8500
348.79	76.1000
349.16	76.1500
349.52	76.2500
349.88	75.8500
350.25	76.4000
350.61	75.7000
350.97	75.9500
351.34	76.3000
351.70	75.9000
352.07	75.1000
352.43	75.8500
352.79	75.8500
353.16	76.4000
353.52	75.3000
353.88	75.9500
354.25	77.1000
354.61	75.9500
354.97	76.8000
355.34	75.7500
355.70	75.8500
356.06	76.4500
356.43	76.8000
356.79	76.7000
357.15	76.3000
357.52	76.2000
357.88	76.0500
358.24	75.8500
358.60	76.4500
358.97	77.1500
359.33	76.2000
359.69	76.2500
360.06	76.2000
360.42	75.5500
360.78	76.9500
361.14	75.9500
361.51	76.9000
361.87	77.9000
362.23	78.0000
362.60	77.0500
362.96	77.5000
363.32	77.3000
363.68	76.5500
364.05	76.8500
364.41	78.0500
364.77	77.1500
365.13	76.8500
365.50	77.7000
365.86	78.3500
366.22	78.4000
366.58	78.5500
366.95	78.8000
367.31	78.8500
367.67	78.2500
368.03	79.2500
368.39	78.7500
368.76	79.5000
369.12	79.7000
369.48	79.5500
369.84	79.7500
370.20	80.3500
370.57	80.2000
370.93	79.7500
371.29	80.9000
371.65	81.1000
372.01	81.1000
372.38	80.7500
372.74	80.7000
373.10	81.4500
373.46	80.5000
373.82	82.2500
374.18	81.8500
374.55	81.8500
374.91	82.2500
375.27	82.5500
375.63	82.8000
375.99	82.6000
376.35	83.1500
376.71	82.4500
377.08	84.1000
377.44	83.9500
377.80	85.3000
378.16	84.2000
378.52	85.3000
378.88	86.3000
379.24	87.0000
379.60	86.5500
379.97	87.5000
380.33	87.5500
380.69	88.6500
381.05	89.8000
381.41	90.1500
381.77	89.9500
382.13	90.7500
382.49	91.2000
382.85	92.5000
383.21	93.0500
383.57	93.8000
383.94	94.1500
384.30	95.1500
384.66	97.0000
385.02	96.1000
385.38	97.0000
385.74	96.4000
386.10	98.6000
386.46	100.0500
386.82	101.3000
387.18	99.1500
387.54	100.5500
387.90	101.7500
388.26	102.8500
388.62	104.4000
388.98	104.4500
389.34	106.4500
389.70	106.4500
390.06	104.5500
390.42	105.7500
390.78	108.5500
391.14	111.7500
391.50	110.6500
391.86	113.1000
392.22	113.1000
392.58	113.8500
392.94	110.6000
393.30	114.3500
393.66	116.2500
394.02	116.5000
394.38	112.8000
394.74	120.0500
395.10	118.9000
395.46	122.6500
395.82	120.7500
396.18	120.5000
396.54	125.4000
396.90	127.7000
397.26	127.0000
397.62	128.5000
397.98	133.0000
398.34	128.2500
398.70	129.1000
399.05	128.4000
399.41	129.1500
399.77	134.7500
400.13	136.4000
400.49	138.1000
400.85	141.9500
401.21	137.5000
401.57	145.8000
401.93	145.0000
402.29	143.7500
402.65	146.0500
403.00	150.9000
403.36	155.0000
403.72	152.1500
404.08	160.2000
404.44	151.3500
404.80	154.5000
405.16	161.4500
405.52	164.7500
405.87	167.3000
406.23	169.4500
406.59	162.8000
406.95	163.3000
407.31	167.8500
407.67	169.5000
408.03	169.5500
408.38	178.0500
408.74	183.2500
409.10	185.8500
409.46	177.1500
409.82	185.3500
410.17	187.7000
410.53	181.1000
410.89	189.0500
411.25	176.4500
411.61	187.9000
411.97	197.0500
412.32	196.3000
412.68	200.8000
413.04	196.6500
413.40	182.4500
413.75	193.3000
414.11	200.4000
414.47	201.6000
414.83	211.3000
415.19	207.0000
415.54	198.0000
415.90	211.0500
416.26	209.8000
416.62	215.6500
416.97	206.9500
417.33	217.9000
417.69	218.0000
418.05	217.9000
418.40	210.9500
418.76	220.7500
419.12	232.7500
419.48	226.7500
419.83	237.7000
420.19	217.6000
420.55	223.9500
420.90	243.3000
421.26	231.2500
421.62	229.3000
421.98	242.9000
422.33	250.8500
422.69	251.9000
423.05	257.1500
423.40	235.7000
423.76	232.2000
424.12	254.7500
424.47	257.1000
424.83	253.4000
425.19	254.5000
425.54	249.7500
425.90	262.6500
426.26	272.2500
426.61	272.3000
426.97	242.9500
427.33	271.7000
427.68	271.1000
428.04	283.7000
428.40	296.8500
428.75	307.0000
429.11	281.0500
429.47	306.4500
429.82	304.8500
430.18	306.5500
430.53	293.3000
430.89	296.5000
431.25	305.5500
431.60	310.1000
431.96	306.1500
432.31	304.9500
432.67	325.1000
433.03	328.3500
433.38	316.0500
433.74	328.8000
434.09	321.7000
434.45	310.5500
434.81	315.0500
435.16	333.2000
435.52	312.7500
435.87	307.7000
436.23	310.7500
436.58	319.3500
436.94	340.4000
437.30	335.3000
437.65	355.2500
438.01	344.5000
438.36	350.6500
438.72	348.3000
439.07	339.8000
439.43	344.3500
439.78	368.3000
440.14	383.7500
440.49	352.8500
440.85	356.8500
441.20	373.5500
441.56	367.2500
441.91	398.8500
442.27	374.4000
442.62	376.0500
442.98	384.9000
443.33	374.7000
443.69	384.9000
444.04	372.7000
444.40	362.0000
444.75	403.3000
445.11	402.4500
445.46	415.2500
445.82	411.2500
446.17	387.9000
446.53	407.7500
446.88	446.1500
447.23	383.2000
447.59	391.3000
447.94	386.0500
448.30	419.0000
448.65	408.1500
449.01	428.9000
449.36	429.2000
449.72	464.4000
450.07	475.7500
450.42	460.6000
450.78	443.5000
451.13	464.1000
451.49	453.1000
451.84	430.4000
452.19	438.5500
452.55	466.7500
452.90	468.8000
453.26	498.6000
453.61	515.3500
453.96	438.7500
454.32	490.7000
454.67	495.5500
455.02	462.8500
455.38	482.6500
455.73	479.9000
456.09	519.5500
456.44	523.7000
456.79	509.4000
457.15	515.8500
457.50	486.5500
457.85	511.0000
458.21	502.9500
458.56	533.2000
458.91	520.2000
459.27	496.9500
459.62	508.2000
459.97	512.3000
460.32	531.7500
460.68	535.4500
461.03	528.7500
461.38	552.8500
461.74	598.8500
462.09	578.4000
462.44	557.7500
462.80	544.0000
463.15	552.4500
463.50	557.7000
463.85	600.2000
464.21	574.7000
464.56	609.2000
464.91	576.6000
465.26	591.9000
465.62	582.6000
465.97	622.6000
466.32	623.2000
466.67	622.8000
467.03	631.4000
467.38	644.9500
467.73	651.0500
468.08	663.8000
468.44	670.1000
468.79	672.2000
469.14	633.8000
469.49	673.9500
469.85	693.6500
470.20	752.8000
470.55	743.7500
470.90	751.4500
471.25	729.4500
471.61	749.6000
471.96	762.3500
472.31	778.6000
472.66	782.6500
473.01	805.9500
473.36	826.7000
473.72	810.9500
474.07	842.5000
474.42	854.8000
474.77	852.7500
475.12	878.5500
475.47	904.9000
475.83	908.7000
476.18	907.2500
476.53	903.1000
476.88	951.8500
477.23	962.1000
477.58	947.9000
477.93	975.6500
478.28	963.9000
478.64	986.4000
478.99	1017.2500
479.34	1028.8000
479.69	1047.4500
480.04	1072.3500
480.39	1077.9000
480.74	1063.6000
481.09	1123.3500
481.44	1126.9000
481.79	1128.3000
482.15	1139.7000
482.50	1157.2500
482.85	1162.3000
483.20	1199.6000
483.55	1200.2000
483.90	1217.0000
484.25	1215.1500
484.60	1221.3500
484.95	1247.7500
485.30	1255.6000
485.65	1275.5500
486.00	1285.3000
486.35	1274.8000
486.70	1288.1000
487.05	1331.8000
487.40	1337.1000
487.75	1352.1000
488.10	1361.0500
488.45	1349.6000
488.80	1365.3500
489.15	1399.8500
489.50	1400.3500
489.85	1413.0500
490.20	1409.2000
490.55	1436.2000
490.90	1443.0000
491.25	1451.6500
491.60	1448.5500
491.95	1457.6000
492.30	1472.2500
492.65	1487.3000
493.00	1491.1500
493.35	1492.2000
493.70	1511.1500
494.05	1520.5500
494.40	1542.0500
494.75	1548.0500
495.10	1538.5500
495.45	1549.7500
495.80	1561.1000
496.15	1577.5000
496.50	1565.2500
496.84	1574.0500
497.19	1582.3000
497.54	1602.0000
497.89	1607.5000
498.24	1605.0000
498.59	1629.4500
498.94	1618.4500
499.29	1628.7500
499.64	1639.6500
499.99	1647.8500
500.33	1657.2500
500.68	1661.6000
501.03	1668.4000
501.38	1679.5500
501.73	1696.4000
502.08	1687.8000
502.43	1710.1500
502.77	1723.2500
503.12	1726.4000
503.47	1732.1000
503.82	1748.6500
504.17	1759.1000
504.52	1772.2000
504.86	1779.7000
505.21	1803.1500
505.56	1797.9000
505.91	1803.2000
506.26	1808.2500
506.61	1832.5000
506.95	1831.4000
507.30	1844.4500
507.65	1865.9500
508.00	1861.1000
508.35	1875.2500
508.69	1877.4500
509.04	1897.5000
509.39	1895.3000
509.74	1900.1000
510.08	1912.9000
510.43	1934.2500
510.78	1941.1500
511.13	1949.6500
511.47	1959.8000
511.82	1972.1000
512.17	1971.7500
512.52	1995.1000
512.86	2009.0000
513.21	2022.1000
513.56	2027.5000
513.91	2051.3000
514.25	2046.4000
514.60	2063.2000
514.95	2078.2000
515.30	2081.9500
515.64	2085.7500
515.99	2120.6001
516.34	2121.3501
516.68	2135.5500
517.03	2136.3000
517.38	2144.3999
517.72	2180.8501
518.07	2170.8000
518.42	2180.9500
518.76	2198.7000
519.11	2207.1499
519.46	2231.0500
519.80	2222.1001
520.15	2236.2000
520.50	2255.1499
520.84	2256.8000
521.19	2270.5500
521.54	2275.5000
521.88	2279.1001
522.23	2307.9500
522.58	2297.2000
522.92	2309.6001
523.27	2331.1499
523.61	2328.7000
523.96	2337.9500
524.31	2369.5000
524.65	2374.2000
525.00	2371.3999
525.34	2353.3999
525.69	2362.2500
526.04	2390.7500
526.38	2397.8000
526.73	2400.8501
527.07	2425.1001
527.42	2422.1001
527.76	2434.2000
528.11	2439.8501
528.46	2441.8000
528.80	2439.8999
529.15	2434.7000
529.49	2438.6499
529.84	2453.5500
530.18	2463.3999
530.53	2483.8000
530.87	2485.2000
531.22	2481.9500
531.56	2484.7500
531.91	2493.3501
532.25	2485.6499
532.60	2489.2500
532.94	2505.6499
533.29	2499.3501
533.63	2497.5500
533.98	2500.3000
534.32	2512.8000
534.67	2533.6499
535.01	2545.3000
535.36	2539.7500
535.70	2560.1499
536.05	2565.5500
536.39	2579.0000
536.74	2549.7000
537.08	2534.1001
537.43	2534.0000
537.77	2565.8000
538.12	2591.1499
538.46	2596.6499
538.80	2610.3999
539.15	2584.8501
539.49	2608.0500
539.84	2628.8999
540.18	2630.0000
540.53	2629.9500
540.87	2624.7500
541.21	2641.8000
541.56	2640.6499
541.90	2657.7000
542.25	2645.1499
542.59	2640.5000
542.93	2676.5500
543.28	2659.3999
543.62	2681.8000
543.97	2681.8501
544.31	2690.7500
544.65	2695.2500
545.00	2711.8000
545.34	2715.8000
545.68	2719.4500
546.03	2714.0000
546.37	2738.2000
546.71	2739.1499
547.06	2751.3000
547.40	2752.4500
547.74	2784.7000
548.09	2771.7500
548.43	2776.2500
548.77	2787.8501
549.12	2783.0500
549.46	2781.8000
549.80	2805.5500
550.15	2817.8999
550.49	2816.2500
550.83	2826.8999
551.17	2841.3501
551.52	2841.5000
551.86	2838.5000
552.20	2853.0000
552.55	2873.7000
552.89	2877.6001
553.23	2888.5500
553.57	2902.2500
553.92	2894.8501
554.26	2923.3000
554.60	2900.6001
554.94	2916.0500
555.29	2934.2000
555.63	2938.8501
555.97	2958.1499
556.31	2950.2500
556.66	2972.3000
557.00	2955.5500
557.34	2982.1001
557.68	2995.9500
558.02	2997.0500
558.37	3009.2500
558.71	3003.7000
559.05	3005.6499
559.39	3020.2000
559.73	3037.4500
560.08	3033.4500
560.42	3049.1499
560.76	3050.9500
561.10	3061.2000
561.44	3046.6499
561.78	3078.9500
562.13	3088.1001
562.47	3071.4500
562.81	3096.5000
563.15	3100.6001
563.49	3100.9500
563.83	3126.3000
564.17	3115.5500
564.52	3122.2000
564.86	3134.3999
565.20	3125.1001
565.54	3135.0000
565.88	3137.3501
566.22	3152.9500
566.56	3141.1001
566.90	3164.0500
567.24	3168.3000
567.59	3161.5000
567.93	3165.5000
568.27	3181.8999
568.61	3200.7000
568.95	3186.5500
569.29	3178.0000
569.63	3220.5500
569.97	3205.9500
570.31	3166.5500
570.65	3193.2500
570.99	3209.3501
571.33	3224.2000
571.67	3202.5500
572.01	3209.6499
572.35	3226.5500
572.69	3232.2000
573.03	3241.8501
573.37	3234.2000
573.71	3229.1001
574.05	3208.9500
574.39	3224.8501
574.73	3249.5500
575.07	3223.3000
575.41	3239.8000
575.75	3243.7500
576.09	3273.5500
576.43	3257.1001
576.77	3252.9500
577.11	3241.6499
577.45	3254.8000
577.79	3237.0500
578.13	3256.5000
578.47	3231.2500
578.81	3240.3999
579.15	3251.3501
579.49	3287.5000
579.83	3277.5000
580.17	3280.6001
580.51	3274.1001
580.85	3277.3501
581.19	3272.4500
581.53	3266.3999
581.87	3268.3501
582.20	3280.3000
582.54	3281.0000
582.88	3275.8501
583.22	3260.8999
583.56	3251.2500
583.90	3287.6499
584.24	3278.0000
584.58	3278.3501
584.92	3301.0500
585.25	3299.0500
585.59	3289.8999
585.93	3302.2500
586.27	3318.8999
586.61	3274.9500
586.95	3312.2500
587.29	3316.5000
587.62	3287.1499
587.96	3311.3000
588.30	3315.8999
588.64	3310.5000
588.98	3310.1001
589.31	3329.5500
589.65	3314.3000
589.99	3300.2500
590.33	3320.7000
590.67	3326.0500
591.01	3327.5000
591.34	3338.6499
591.68	3334.7500
592.02	3346.9500
592.36	3341.2500
592.69	3337.8000
593.03	3346.8000
593.37	3358.5000
593.71	3354.4500
594.04	3348.1001
594.38	3349.1499
594.72	3374.0500
595.06	3359.6499
595.39	3352.0000
595.73	3371.6001
596.07	3398.1001
596.41	3380.8999
596.74	3384.4500
597.08	3382.8501
597.42	3381.9500
597.76	3371.9500
598.09	3395.1001
598.43	3374.3501
598.77	3402.9500
599.10	3419.8999
599.44	3406.6001
599.78	3406.0000
600.11	3418.2000
600.45	3420.4500
600.79	3420.5500
601.12	3416.2500
601.46	3441.4500
601.80	3443.5000
602.13	3423.8000
602.47	3443.9500
602.81	3427.8501
603.14	3428.8999
603.48	3458.7000
603.82	3448.7000
604.15	3445.2000
604.49	3452.9500
604.82	3452.8000
605.16	3462.0000
605.50	3445.1499
605.83	3481.5500
606.17	3476.2000
606.50	3479.0000
606.84	3464.3000
607.18	3477.7500
607.51	3472.3501
607.85	3479.2500
608.18	3491.9500
608.52	3490.8000
608.86	3484.8999
609.19	3508.2000
609.53	3466.1499
609.86	3513.5500
610.20	3500.5000
610.53	3491.2000
610.87	3482.8501
611.20	3525.3501
611.54	3482.7500
611.87	3497.2000
612.21	3509.1499
612.54	3500.8999
612.88	3499.6001
613.21	3507.3501
613.55	3504.7500
613.88	3489.3999
614.22	3505.1001
614.55	3481.2500
614.89	3488.1001
615.22	3486.0000
615.56	3486.5000
615.89	3505.7500
616.23	3510.5500
616.56	3464.8999
616.90	3499.5000
617.23	3482.7500
617.57	3512.0000
617.90	3500.7000
618.24	3494.6499
618.57	3505.7500
618.90	3492.0000
619.24	3490.2000
619.57	3493.3999
619.91	3521.3000
620.24	3454.3501
620.58	3499.2500
620.91	3484.8999
621.24	3497.0500
621.58	3500.2000
621.91	3480.7500
622.25	3490.6499
622.58	3487.1499
622.91	3514.1499
623.25	3469.3999
623.58	3483.0000
623.91	3472.6001
624.25	3489.8999
624.58	3486.3999
624.92	3483.8000
625.25	3484.2000
625.58	3462.0500
625.92	3500.5500
626.25	3482.7000
626.58	3504.1001
626.92	3474.0000
627.25	3490.8999
627.58	3473.1001
627.91	3485.7500
628.25	3488.4500
628.58	3486.3000
628.91	3469.0500
629.25	3474.0000
629.58	3467.8501
629.91	3474.1499
630.25	3485.7500
630.58	3464.6499
630.91	3470.3501
631.24	3475.4500
631.58	3484.0500
631.91	3484.3501
632.24	3440.1001
632.57	3449.3999
632.91	3455.8000
633.24	3450.7000
633.57	3461.1001
633.90	3458.8000
634.24	3452.7000
634.57	3450.1001
634.90	3466.7000
635.23	3416.5500
635.56	3435.6001
635.90	3432.5500
636.23	3443.0000
636.56	3431.8501
636.89	3438.3999
637.22	3445.0000
637.56	3438.8000
637.89	3405.7500
638.22	3423.7500
638.55	3438.1499
638.88	3391.3501
639.21	3416.7500
639.55	3390.6001
639.88	3402.8501
640.21	3408.5500
640.54	3406.5000
640.87	3379.5500
641.20	3391.5500
641.53	3407.3000
641.87	3390.4500
642.20	3391.6499
642.53	3382.3999
642.86	3392.2000
643.19	3387.3000
643.52	3374.7000
643.85	3380.8000
644.18	3376.2500
644.51	3367.1499
644.84	3369.8000
645.18	3362.1499
645.51	3353.8501
645.84	3364.8501
646.17	3361.0000
646.50	3370.5500
646.83	3375.3000
647.16	3345.3999
647.49	3358.2500
647.82	3354.6001
648.15	3348.9500
648.48	3359.4500
648.81	3354.8000
649.14	3337.6499
649.47	3350.4500
649.80	3339.3000
650.13	3335.0500
650.46	3354.9500
650.79	3342.6499
651.12	3351.3501
651.45	3338.0500
651.78	3318.1499
652.11	3341.8999
652.44	3323.2000
652.77	3332.1001
653.10	3351.2500
653.43	3345.9500
653.76	3333.7000
654.09	3310.0000
654.42	3329.7500
654.75	3329.0500
655.08	3309.3000
655.41	3309.2000
655.74	3279.7000
656.07	3318.3501
656.39	3315.7500
656.72	3308.7500
657.05	3300.8501
657.38	3324.2500
657.71	3322.4500
658.04	3304.1001
658.37	3304.8000
658.70	3317.8501
659.03	3294.4500
659.36	3298.9500
659.68	3299.6001
660.01	3304.3999
660.34	3305.1499
660.67	3303.2500
661.00	3313.3501
661.33	3284.8000
661.66	3283.0500
661.98	3289.6499
662.31	3285.1001
662.64	3274.7000
662.97	3274.0000
663.30	3257.1001
663.63	3272.1001
663.95	3245.2000
664.28	3262.7000
664.61	3250.6001
664.94	3253.1001
665.27	3266.0500
665.59	3249.7500
665.92	3258.6499
666.25	3236.3000
666.58	3227.0500
666.91	3269.6499
667.23	3235.8501
667.56	3229.0000
667.89	3218.6499
668.22	3229.7000
668.54	3231.8000
668.87	3235.6499
669.20	3223.2500
669.53	3227.2000
669.85	3225.6001
670.18	3205.0500
670.51	3201.8000
670.83	3188.1499
671.16	3209.4500
671.49	3215.0500
671.82	3202.8501
672.14	3180.7500
672.47	3179.3000
672.80	3171.7000
673.12	3177.2000
673.45	3189.9500
673.78	3144.6001
674.10	3179.1001
674.43	3155.7000
674.76	3152.9500
675.08	3163.3000
675.41	3132.7500
675.74	3138.2000
676.06	3140.8999
676.39	3121.6499
676.72	3121.8501
677.04	3131.1499
677.37	3118.0500
677.69	3104.4500
678.02	3095.5500
678.35	3094.8999
678.67	3064.0000
679.00	3092.2000
679.32	3090.0000
679.65	3072.3000
679.98	3076.8999
680.30	3065.6499
680.63	3047.8501
680.95	3038.5500
681.28	3052.3000
681.60	3026.2000
681.93	3027.5000
682.26	3019.0500
682.58	3019.6001
682.91	3022.1001
683.23	2995.9500
683.56	2984.1001
683.88	3007.1001
684.21	2973.7500
684.53	2990.2500
684.86	2987.1499
685.18	2973.2500
685.51	2982.0500
685.83	2967.2000
686.16	2935.3999
686.48	2932.5000
686.81	2951.3501
687.13	2941.3000
687.46	2932.8999
687.78	2944.6499
688.11	2908.2500
688.43	2902.5000
688.76	2900.2500
689.08	2900.1499
689.41	2884.4500
689.73	2875.2000
690.05	2870.8999
690.38	2870.8000
690.70	2871.5500
691.03	2843.5500
691.35	2846.8999
691.68	2813.8000
692.00	2823.9500
692.32	2842.3000
692.65	2824.8000
692.97	2820.5500
693.29	2819.0500
693.62	2796.0000
693.94	2814.3999
694.27	2788.8999
694.59	2749.3501
694.91	2779.7500
695.24	2779.6499
695.56	2752.1499
695.88	2746.3999
696.21	2708.2000
696.53	2695.2500
696.85	2728.7000
697.18	2727.5500
697.50	2715.7500
697.82	2727.8501
698.15	2710.5000
698.47	2700.7000
698.79	2707.6499
699.12	2706.0500
699.44	2664.0500
699.76	2658.8501
700.09	2663.6001
700.41	2665.3999
700.73	2637.7500
701.05	2658.8999
701.38	2636.8000
701.70	2642.3000
702.02	2637.3501
702.34	2625.8000
702.67	2631.7500
702.99	2632.6001
703.31	2601.3999
703.63	2608.3000
703.96	2593.5000
704.28	2585.4500
704.60	2570.8000
704.92	2585.6499
705.25	2568.7000
705.57	2569.5500
705.89	2557.3501
706.21	2552.8000
706.53	2550.8000
706.86	2546.9500
707.18	2543.8000
707.50	2557.7000
707.82	2517.6001
708.14	2530.6001
708.46	2542.7500
708.79	2515.7000
709.11	2532.0000
709.43	2506.5500
709.75	2497.2500
710.07	2491.1499
710.39	2498.1499
710.71	2485.5500
711.04	2481.8501
711.36	2471.6001
711.68	2463.7500
712.00	2462.8501
712.32	2467.3999
712.64	2441.3999
712.96	2433.6499
713.28	2422.7000
713.60	2445.6001
713.92	2415.1499
714.24	2424.7500
714.57	2421.6001
714.89	2409.5500
715.21	2408.5000
715.53	2389.2500
715.85	2392.7500
716.17	2390.2000
716.49	2387.1001
716.81	2377.8999
717.13	2381.7500
717.45	2359.7500
717.77	2353.8000
718.09	2342.1499
718.41	2348.6499
718.73	2341.6001
719.05	2326.7000
719.37	2300.2500
719.69	2314.3000
720.01	2315.6499
720.33	2288.9500
720.65	2291.2000
720.97	2292.7000
721.29	2265.0000
721.61	2283.5500
721.93	2277.0500
722.25	2254.5000
722.57	2249.3501
722.89	2244.3999
723.21	2248.8501
723.52	2234.7500
723.84	2218.2000
724.16	2236.8000
724.48	2225.8000
724.80	2228.7500
725.12	2217.3999
725.44	2216.1499
725.76	2201.9500
726.08	2208.0500
726.40	2189.3999
726.72	2201.1499
727.03	2204.8501
727.35	2198.3000
727.67	2179.5000
727.99	2176.0000
728.31	2176.2500
728.63	2171.8501
728.95	2163.8999
729.26	2154.6001
729.58	2150.1001
729.90	2153.8999
730.22	2121.8999
730.54	2123.0000
730.86	2135.7000
731.17	2139.2500
731.49	2123.4500
731.81	2139.5000
732.13	2131.6499
732.45	2100.0500
732.76	2098.4500
733.08	2102.2500
733.40	2100.3501
733.72	2090.1001
734.03	2083.4500
734.35	2081.7500
734.67	2095.1499
734.99	2070.4500
735.30	2075.3000
735.62	2068.4500
735.94	2068.7000
736.26	2049.0500
736.57	2040.7000
736.89	2056.0500
737.21	2026.3000
737.53	2022.0000
737.84	2019.7000
738.16	1999.6000
738.48	2001.6000
738.79	2003.5000
739.11	1986.2000
739.43	1979.9500
739.74	1977.0500
740.06	1960.0000
740.38	1954.3000
740.69	1946.9500
741.01	1942.5500
741.33	1924.9500
741.64	1924.0000
741.96	1910.4000
742.28	1915.3000
742.59	1889.1000
742.91	1890.0500
743.23	1877.0000
743.54	1887.0000
743.86	1865.4000
744.17	1858.4500
744.49	1855.7000
744.81	1855.2000
745.12	1841.2500
745.44	1823.0000
745.75	1826.0000
746.07	1819.4000
746.38	1816.1500
746.70	1811.0000
747.02	1810.5000
747.33	1790.9500
747.65	1790.0500
747.96	1791.3000
748.28	1782.2500
748.59	1776.3000
748.91	1767.5000
749.22	1770.5500
749.54	1764.1500
749.85	1765.1000
750.17	1760.5000
750.48	1747.2500
750.80	1743.5000
751.11	1743.6500
751.43	1740.7000
751.74	1738.1000
752.06	1737.1500
752.37	1728.9000
752.69	1730.6000
753.00	1722.5000
753.32	1721.9500
753.63	1723.2000
753.95	1717.6500
754.26	1697.5500
754.58	1703.9000
754.89	1704.4000
755.20	1702.2500
755.52	1699.4500
755.83	1696.4000
756.15	1694.2500
756.46	1683.3500
756.78	1675.1000
757.09	1672.5500
757.40	1668.9500
757.72	1668.2500
758.03	1668.5000
758.34	1660.5000
758.66	1667.2500
758.97	1661.6000
759.29	1655.7500
759.60	1656.4500
759.91	1642.4000
760.23	1640.9000
760.54	1647.7500
760.85	1639.6000
761.17	1630.0000
761.48	1631.5500
761.79	1610.4000
762.11	1611.5000
762.42	1606.7000
762.73	1622.9500
763.05	1607.4500
763.36	1618.3500
763.67	1611.0000
763.98	1588.5000
764.30	1568.0500
764.61	1580.7500
764.92	1583.4000
765.23	1571.6000
765.55	1564.9000
765.86	1559.4500
766.17	1563.3500
766.48	1556.2500
766.80	1534.7000
767.11	1551.5500
767.42	1519.6500
767.73	1516.9000
768.05	1526.5000
768.36	1526.9500
768.67	1534.8500
768.98	1523.3500
769.29	1533.7000
769.61	1514.4000
769.92	1484.9500
770.23	1492.7500
770.54	1462.5000
770.85	1486.1000
771.17	1479.6000
771.48	1473.8000
771.79	1465.4000
772.10	1456.1000
772.41	1457.7000
772.72	1441.3000
773.03	1432.7500
773.35	1425.7000
773.66	1410.9000
773.97	1412.4000
774.28	1405.2500
774.59	1393.9500
774.90	1398.3000
775.21	1400.9000
775.52	1399.5500
775.83	1393.2000
776.15	1379.4500
776.46	1360.8000
776.77	1360.3500
777.08	1364.1000
777.39	1364.9500
777.70	1342.3000
778.01	1346.5000
778.32	1348.2500
778.63	1350.6000
778.94	1339.2000
779.25	1328.3000
779.56	1317.5000
779.87	1307.7500
780.18	1293.6000
780.49	1291.9000
780.80	1297.8000
781.11	1281.1000
781.42	1273.4500
781.73	1271.7000
782.04	1251.5500
782.35	1240.9000
782.66	1244.7000
782.97	1240.3000
783.28	1246.4000
783.59	1238.0000
783.90	1236.1500
784.21	1224.4000
784.52	1214.6000
784.83	1211.7000
785.14	1204.2000
785.45	1195.7500
785.76	1181.0000
786.06	1189.0000
786.37	1189.1500
786.68	1183.0500
786.99	1173.2500
787.30	1167.2000
787.61	1172.3000
787.92	1155.0500
788.23	1139.9500
788.54	1155.0000
788.84	1142.8500
789.15	1141.8000
789.46	1136.4500
789.77	1117.7000
790.08	1123.4000
790.39	1109.2000
790.70	1117.4500
791.00	1116.9500
791.31	1089.1000
791.62	1097.1500
791.93	1087.8000
792.24	1085.2500
792.54	1074.7500
792.85	1062.7000
793.16	1063.6500
793.47	1055.7500
793.78	1057.4500
794.08	1048.6500
794.39	1035.8000
794.70	1042.1000
795.01	1033.4500
795.31	1028.9500
795.62	1022.2500
795.93	1022.5500
796.24	1024.8500
796.54	1010.3500
796.85	1012.5500
797.16	998.7000
797.47	987.6000
797.77	989.9000
798.08	982.9000
798.39	986.2000
798.69	985.0500
799.00	973.7500
799.31	968.9000
799.62	964.2500
799.92	954.0000
800.23	950.8000
800.54	950.2000
800.84	942.6500
801.15	934.4500
801.46	935.9500
801.76	934.7000
802.07	917.6500
802.37	915.1500
802.68	908.8500
802.99	914.7500
803.29	901.6000
803.60	892.4000
803.91	884.3500
804.21	890.1000
804.52	890.1000
804.82	882.1500
805.13	888.6000
805.44	878.0500
805.74	872.4000
806.05	874.0500
806.35	862.5500
806.66	856.2500
806.96	860.0500
807.27	843.8500
807.57	843.6000
807.88	844.4000
808.19	832.6500
808.49	837.3500
808.80	828.0000
809.10	822.3000
809.41	827.5000
809.71	814.1500
810.02	813.7000
810.32	807.9500
810.63	810.4500
810.93	806.2500
811.24	799.8500
811.54	807.4000
811.85	796.3000
812.15	786.7500
812.45	789.2000
812.76	780.5000
813.06	773.9500
813.37	775.8500
813.67	777.1000
813.98	766.0500
814.28	756.2500
814.58	758.3000
814.89	749.6000
815.19	751.5000
815.50	745.2000
815.80	742.1500
816.11	736.0500
816.41	739.6000
816.71	735.2500
817.02	732.7500
817.32	724.6500
817.62	720.6000
817.93	722.4000
818.23	714.5000
818.53	712.9500
818.84	716.8500
819.14	704.3000
819.44	705.4000
819.75	703.0000
820.05	695.5000
820.35	686.0500
820.66	684.8500
820.96	691.7500
821.26	682.7000
821.57	682.3000
821.87	679.9000
822.17	678.9500
822.48	674.9500
822.78	672.0000
823.08	664.2500
823.38	666.1000
823.69	655.6000
823.99	656.9500
824.29	656.7000
824.59	647.0000
824.90	651.2000
825.20	647.1000
825.50	642.5500
825.80	638.2000
826.10	643.5000
826.41	636.8000
826.71	630.5500
827.01	629.2000
827.31	632.0000
827.61	627.1500
827.92	628.6000
828.22	623.9000
828.52	620.9000
828.82	616.0000
829.12	608.6500
829.42	609.7500
829.73	606.3000
830.03	601.4000
830.33	603.1000
830.63	597.6500
830.93	599.2000
831.23	590.0500
831.53	590.0500
831.83	584.4000
832.14	581.1500
832.44	587.0000
832.74	578.2000
833.04	577.0500
833.34	580.1000
833.64	575.0500
833.94	569.8500
834.24	569.7000
834.54	570.1500
834.84	566.1500
835.14	558.6500
835.44	559.9000
835.74	558.1000
836.04	554.9000
836.34	555.0000
836.64	554.0500
836.95	551.8000
837.25	544.9500
837.55	543.4500
837.85	543.1000
838.15	542.4500
838.45	537.3500
838.74	537.0500
839.04	529.1500
839.34	529.4500
839.64	522.7000
839.94	523.9500
840.24	521.8000
840.54	523.4500
840.84	522.4000
841.14	517.4500
841.44	518.1000
841.74	511.8500
842.04	507.6500
842.34	506.8500
842.64	503.2500
842.94	506.6000
843.24	502.4000
843.53	498.2000
843.83	497.1000
844.13	495.9500
844.43	491.4000
844.73	492.3500
845.03	487.8500
845.33	486.9000
845.63	487.3000
845.92	481.4500
846.22	482.7500
846.52	479.8000
846.82	477.6000
847.12	471.9000
847.42	474.1500
847.71	470.4500
848.01	469.1500
848.31	465.2500
848.61	464.8000
848.91	462.3000
849.20	462.1000
849.50	459.3000
849.80	459.7000
850.10	456.1500
850.39	454.3000
850.69	452.0500
850.99	448.4000
851.29	447.0000
851.59	445.0000
851.88	442.4000
852.18	440.9500
852.48	438.7500
852.77	436.0500
853.07	438.8500
853.37	434.7500
853.67	434.7500
853.96	428.3500
854.26	430.1500
854.56	427.9500
854.85	424.5000
855.15	422.9500
855.45	422.3000
855.74	416.0000
856.04	416.4500
856.34	418.0000
856.63	415.2500
856.93	409.4500
857.23	410.6000
857.52	406.1500
857.82	405.8000
858.11	404.3500
858.41	403.8000
858.71	397.7000
859.00	398.4500
859.30	397.5000
859.59	394.6000
859.89	390.8000
860.19	386.9000
860.48	388.3500
860.78	386.9500
861.07	385.2000
861.37	384.4500
861.66	383.9500
861.96	377.8500
862.26	377.3500
862.55	375.9500
862.85	375.4500
863.14	372.5500
863.44	369.6000
863.73	366.4000
864.03	364.5000
864.32	368.3500
864.62	367.1500
864.91	359.5500
865.21	360.6000
865.50	356.2500
865.80	356.5500
866.09	356.0500
866.39	355.9000
866.68	355.5500
866.97	348.7000
867.27	348.7500
867.56	344.3500
867.86	345.0500
868.15	339.4000
868.45	336.7500
868.74	337.7000
869.03	337.3000
869.33	338.1500
869.62	332.4500
869.92	333.0500
870.21	325.0000
870.50	324.0500
870.80	323.9500
871.09	323.6500
871.39	317.8500
871.68	319.6000
871.97	316.8000
872.27	317.9500
872.56	311.5000
872.85	310.5000
873.15	309.4500
873.44	305.7500
873.73	307.2000
874.03	303.1000
874.32	303.9500
874.61	302.1000
874.90	301.0000
875.20	296.8500
875.49	295.3500
875.78	294.4500
>>>>>End Spectral Data<<<<<
