OOIBase32 Version 1.0.0.8 Data File
++++++++++++++++++++++++++++++++++++
Date: Wednesday, January 23, 1980, 02:10:40
User: Valued Ocean Optics Customer
Spectrometer Serial Number: Unknown
Spectrometer Channel: Master
Integration Time (msec): 3
Spectra Averaged: 20
Boxcar Smoothing: 0
Correct for Electrical Dark: Disabled
Time Normalized: Disabled
Dual-beam Reference: Disabled
Reference Channel: Master
>>>>>Begin Spectral Data<<<<<
179.00	0.0000
179.38	0.0000
179.75	66.9000
180.13	67.6000
180.51	68.4000
180.88	68.0000
181.26	68.9500
181.64	69.1500
182.02	68.7500
182.39	69.0000
182.77	68.9000
183.15	68.3500
183.52	69.5500
183.90	68.5500
184.28	68.0000
184.65	68.1500
185.03	67.8000
185.41	69.2000
185.78	67.6000
186.16	68.5500
186.53	68.7000
186.91	68.0500
187.29	68.0000
187.66	68.9000
188.04	68.7000
188.42	71.7500
188.79	71.0000
189.17	71.8000
189.55	70.8500
189.92	71.8000
190.30	72.6000
190.67	72.0000
191.05	72.0000
191.43	72.0000
191.80	71.3500
192.18	71.7000
192.56	71.9000
192.93	72.0500
193.31	72.4000
193.68	72.8000
194.06	72.0500
194.44	70.5500
194.81	70.6500
195.19	71.2000
195.56	72.3000
195.94	73.1000
196.32	72.7500
196.69	71.5500
197.07	72.1500
197.44	72.1500
197.82	71.7000
198.19	71.9500
198.57	72.1000
198.95	72.4500
199.32	72.7500
199.70	71.1500
200.07	72.3500
200.45	71.9000
200.82	72.0000
201.20	72.1000
201.57	71.5000
201.95	71.4000
202.33	72.6500
202.70	71.4500
203.08	72.5000
203.45	72.3000
203.83	73.2500
204.20	72.5000
204.58	72.0500
204.95	71.9000
205.33	71.7500
205.70	73.7500
206.08	72.2500
206.45	72.3000
206.83	71.5000
207.20	71.4500
207.58	72.5500
207.95	71.7000
208.33	72.1000
208.70	72.1500
209.08	72.4500
209.45	71.0000
209.83	72.2000
210.20	72.2500
210.58	72.3500
210.95	71.5500
211.33	72.0500
211.70	73.4000
212.08	72.0000
212.45	71.4000
212.83	71.4000
213.20	72.3000
213.58	73.0000
213.95	72.3000
214.33	71.6500
214.70	72.0000
215.07	71.7500
215.45	72.6000
215.82	73.9000
216.20	71.7000
216.57	72.2000
216.95	70.7500
217.32	71.9500
217.70	73.6500
218.07	71.5500
218.44	72.4000
218.82	72.7500
219.19	72.2000
219.57	72.2500
219.94	71.3500
220.32	72.4000
220.69	72.8500
221.06	72.7500
221.44	72.7500
221.81	72.0000
222.19	73.1500
222.56	72.8000
222.93	72.7000
223.31	72.4500
223.68	72.1000
224.06	72.4000
224.43	72.5000
224.80	71.1000
225.18	72.9000
225.55	73.2500
225.92	72.9500
226.30	72.4500
226.67	72.6500
227.05	72.0500
227.42	72.0000
227.79	72.2000
228.17	71.8000
228.54	72.7000
228.91	72.2000
229.29	72.6500
229.66	72.5500
230.03	73.2000
230.41	71.4000
230.78	72.9500
231.15	73.5500
231.53	72.8500
231.90	72.4000
232.27	72.2000
232.65	73.4000
233.02	71.8500
233.39	72.9000
233.77	73.4000
234.14	72.1000
234.51	71.6500
234.89	72.6500
235.26	73.3000
235.63	72.3500
236.01	73.3500
236.38	72.8000
236.75	72.3000
237.12	72.4000
237.50	72.3000
237.87	72.7500
238.24	72.6500
238.62	72.6000
238.99	73.4000
239.36	72.5500
239.73	73.4000
240.11	72.2500
240.48	71.7500
240.85	73.0500
241.23	73.0000
241.60	71.8500
241.97	72.2000
242.34	71.6500
242.72	72.8500
243.09	72.5500
243.46	72.6000
243.83	72.3500
244.21	72.7500
244.58	72.2000
244.95	72.0000
245.32	73.5500
245.70	72.9000
246.07	71.9000
246.44	72.3500
246.81	73.1000
247.18	71.6500
247.56	73.1500
247.93	72.9000
248.30	72.4500
248.67	72.8000
249.04	73.0000
249.42	73.2500
249.79	73.0000
250.16	73.0000
250.53	72.4000
250.90	72.0000
251.28	72.3500
251.65	72.7000
252.02	72.9000
252.39	73.1500
252.76	73.3000
253.14	72.8500
253.51	72.5000
253.88	72.3500
254.25	73.1500
254.62	73.2000
254.99	73.1000
255.37	74.3500
255.74	73.0000
256.11	73.0000
256.48	74.4000
256.85	73.8000
257.22	74.4500
257.59	72.9000
257.97	74.0500
258.34	74.1500
258.71	72.6000
259.08	72.6500
259.45	72.9500
259.82	73.1000
260.19	72.0500
260.56	72.8000
260.94	73.1500
261.31	73.1000
261.68	71.6500
262.05	74.0000
262.42	73.6000
262.79	73.2500
263.16	73.9500
263.53	72.3500
263.90	73.1500
264.28	73.1500
264.65	74.1500
265.02	73.9500
265.39	74.6000
265.76	72.5500
266.13	73.8000
266.50	73.1500
266.87	73.2000
267.24	73.0500
267.61	73.5000
267.98	72.9500
268.35	72.2500
268.72	73.3000
269.09	73.3000
269.46	72.6500
269.84	72.7000
270.21	73.7500
270.58	74.3000
270.95	73.0000
271.32	72.8500
271.69	72.2500
272.06	73.0500
272.43	73.4500
272.80	73.3000
273.17	72.8500
273.54	74.8000
273.91	72.1000
274.28	72.9500
274.65	73.1500
275.02	73.2500
275.39	73.0500
275.76	72.8500
276.13	73.2000
276.50	73.9500
276.87	74.1000
277.24	72.7500
277.61	73.0000
277.98	72.3000
278.35	73.3000
278.72	72.6000
279.09	73.5500
279.46	73.7000
279.83	73.9000
280.20	73.8500
280.57	72.6500
280.94	72.7000
281.31	73.7000
281.67	73.2500
282.04	73.6500
282.41	73.0000
282.78	73.4500
283.15	73.6500
283.52	73.9000
283.89	74.2500
284.26	73.6000
284.63	72.0500
285.00	71.9000
285.37	73.5000
285.74	74.0000
286.11	73.3000
286.48	73.8500
286.85	73.3500
287.21	72.1500
287.58	72.9000
287.95	73.3500
288.32	74.0500
288.69	73.0500
289.06	73.6500
289.43	73.3000
289.80	73.3500
290.17	73.5000
290.54	73.0500
290.90	73.5000
291.27	74.8500
291.64	73.6500
292.01	74.0500
292.38	73.0500
292.75	73.2000
293.12	73.0000
293.48	73.9500
293.85	74.7000
294.22	74.1000
294.59	73.5500
294.96	73.2000
295.33	73.0500
295.70	73.9000
296.06	73.7000
296.43	73.0000
296.80	73.5000
297.17	73.6500
297.54	73.2500
297.91	73.2500
298.27	74.3500
298.64	74.6000
299.01	73.5500
299.38	74.3500
299.75	73.1000
300.11	73.9000
300.48	73.2000
300.85	74.0000
301.22	73.4000
301.59	73.7000
301.95	74.0000
302.32	73.9000
302.69	74.3000
303.06	74.2500
303.43	74.0000
303.79	73.3000
304.16	73.8500
304.53	74.3000
304.90	74.1500
305.26	73.9000
305.63	72.9500
306.00	74.1000
306.37	74.3000
306.73	74.5500
307.10	73.0500
307.47	73.6500
307.84	73.2500
308.20	73.9500
308.57	74.0500
308.94	74.6500
309.31	74.1000
309.67	72.5000
310.04	72.9000
310.41	73.3000
310.77	74.5000
311.14	75.2000
311.51	72.5000
311.88	73.9500
312.24	73.9500
312.61	73.5500
312.98	73.4000
313.34	73.0500
313.71	73.7000
314.08	74.1500
314.44	74.6000
314.81	74.7000
315.18	74.2000
315.55	73.7000
315.91	74.1000
316.28	73.4000
316.65	74.4500
317.01	73.2500
317.38	73.6500
317.75	73.9500
318.11	74.0000
318.48	73.5500
318.84	72.8000
319.21	74.4500
319.58	73.6500
319.94	73.3500
320.31	73.6000
320.68	74.8000
321.04	73.8500
321.41	74.0000
321.78	74.1000
322.14	74.4500
322.51	74.0000
322.87	75.1000
323.24	74.1000
323.61	72.8000
323.97	75.0500
324.34	74.0000
324.70	74.5500
325.07	74.4500
325.44	73.5000
325.80	73.7000
326.17	73.3000
326.53	75.0500
326.90	74.0000
327.27	75.4500
327.63	74.4500
328.00	73.7500
328.36	74.2000
328.73	74.5000
329.09	74.9500
329.46	74.4500
329.83	73.6500
330.19	74.3500
330.56	75.3000
330.92	74.5000
331.29	73.7000
331.65	75.3500
332.02	74.5000
332.38	74.6000
332.75	75.0500
333.11	74.9000
333.48	74.3500
333.84	74.6000
334.21	75.1500
334.58	74.1500
334.94	73.4500
335.31	74.4500
335.67	73.8500
336.04	75.5500
336.40	74.7000
336.77	73.0000
337.13	75.5500
337.50	74.2000
337.86	75.4000
338.22	74.3000
338.59	74.3000
338.95	75.0500
339.32	74.6500
339.68	75.2500
340.05	74.9000
340.41	74.2500
340.78	73.4000
341.14	75.0500
341.51	75.0000
341.87	74.2500
342.24	75.3000
342.60	74.8500
342.96	74.8500
343.33	74.6500
343.69	75.2000
344.06	75.9000
344.42	73.9500
344.79	74.5500
345.15	75.0000
345.51	75.4500
345.88	75.7500
346.24	75.5500
346.61	75.4000
346.97	74.5000
347.34	74.5000
347.70	74.5000
348.06	74.5000
348.43	74.4500
348.79	74.7500
349.16	75.0000
349.52	75.4500
349.88	75.6500
350.25	76.0000
350.61	75.3000
350.97	74.6500
351.34	75.5000
351.70	75.9500
352.07	75.9000
352.43	76.1500
352.79	74.9000
353.16	75.2500
353.52	75.6500
353.88	75.2500
354.25	75.1500
354.61	74.7500
354.97	75.8000
355.34	74.3000
355.70	76.2000
356.06	75.6500
356.43	75.4000
356.79	76.6000
357.15	75.1500
357.52	76.0000
357.88	76.9000
358.24	77.0500
358.60	77.5500
358.97	76.6500
359.33	77.1000
359.69	76.4000
360.06	76.4000
360.42	76.3500
360.78	76.8000
361.14	76.7000
361.51	76.8000
361.87	76.5000
362.23	77.2000
362.60	77.3500
362.96	77.9500
363.32	77.0000
363.68	78.4500
364.05	77.9000
364.41	76.6000
364.77	78.5500
365.13	78.5500
365.50	79.5000
365.86	78.8000
366.22	78.5000
366.58	80.0000
366.95	79.3500
367.31	79.7500
367.67	79.1000
368.03	80.1000
368.39	81.0500
368.76	79.9500
369.12	79.7000
369.48	79.3000
369.84	80.1000
370.20	80.5000
370.57	81.4500
370.93	81.9000
371.29	82.3500
371.65	81.1500
372.01	82.8000
372.38	82.4500
372.74	82.9000
373.10	82.6500
373.46	83.4000
373.82	82.9500
374.18	82.4000
374.55	85.5000
374.91	85.2000
375.27	85.7500
375.63	85.8000
375.99	86.1000
376.35	86.1000
376.71	85.8000
377.08	86.1000
377.44	87.1500
377.80	88.3500
378.16	87.5000
378.52	87.8500
378.88	89.2500
379.24	89.6500
379.60	89.7500
379.97	90.7000
380.33	91.6000
380.69	91.3500
381.05	91.6500
381.41	94.1500
381.77	93.0000
382.13	93.6000
382.49	94.7000
382.85	94.8000
383.21	95.8000
383.57	96.7000
383.94	96.7000
384.30	97.9500
384.66	98.6500
385.02	99.5500
385.38	100.3000
385.74	99.6500
386.10	100.7500
386.46	101.9000
386.82	103.2500
387.18	102.8000
387.54	103.2500
387.90	104.2500
388.26	106.5000
388.62	107.6000
388.98	107.4500
389.34	108.3000
389.70	107.6500
390.06	105.3000
390.42	107.7500
390.78	111.8500
391.14	113.6500
391.50	113.2500
391.86	115.6000
392.22	116.4000
392.58	114.6500
392.94	112.7500
393.30	116.3000
393.66	118.3000
394.02	119.1000
394.38	116.8500
394.74	121.6500
395.10	121.2000
395.46	125.8500
395.82	125.4500
396.18	123.6000
396.54	126.7500
396.90	130.8500
397.26	128.4500
397.62	129.8500
397.98	134.6500
398.34	131.2000
398.70	131.5000
399.05	129.0000
399.41	129.7000
399.77	135.6500
400.13	139.0000
400.49	138.6000
400.85	144.5500
401.21	137.9500
401.57	147.5000
401.93	144.6500
402.29	144.7000
402.65	145.9500
403.00	151.3000
403.36	154.8000
403.72	151.8000
404.08	159.7500
404.44	151.9000
404.80	155.4000
405.16	162.4500
405.52	166.6000
405.87	168.2500
406.23	171.2500
406.59	160.4000
406.95	163.1500
407.31	166.5500
407.67	167.9500
408.03	167.9500
408.38	174.3500
408.74	181.9500
409.10	183.8000
409.46	174.3500
409.82	183.8500
410.17	180.9500
410.53	179.0500
410.89	183.5500
411.25	173.9500
411.61	182.5000
411.97	190.7000
412.32	190.6500
412.68	195.8500
413.04	191.9500
413.40	177.2500
413.75	186.6500
414.11	193.8000
414.47	194.3000
414.83	203.8000
415.19	200.3500
415.54	193.7500
415.90	204.1500
416.26	201.9500
416.62	208.1500
416.97	197.4500
417.33	209.4500
417.69	209.6500
418.05	207.8000
418.40	201.5500
418.76	210.1000
419.12	221.0500
419.48	215.6000
419.83	226.6000
420.19	207.3000
420.55	212.2000
420.90	232.5000
421.26	219.2500
421.62	218.7000
421.98	233.4500
422.33	239.6500
422.69	239.8000
423.05	246.5000
423.40	226.6500
423.76	220.3000
424.12	241.8500
424.47	242.5500
424.83	239.9000
425.19	240.5000
425.54	236.1500
425.90	249.6000
426.26	258.8500
426.61	259.6000
426.97	230.7000
427.33	256.9500
427.68	255.8500
428.04	269.7000
428.40	281.7000
428.75	289.4000
429.11	263.4500
429.47	292.5500
429.82	284.4500
430.18	288.3000
430.53	276.4500
430.89	279.6500
431.25	287.1000
431.60	294.0500
431.96	289.7500
432.31	286.0500
432.67	307.4500
433.03	307.3500
433.38	298.7000
433.74	310.1000
434.09	301.2000
434.45	292.9500
434.81	293.9000
435.16	312.9500
435.52	295.2500
435.87	290.2000
436.23	292.5500
436.58	301.2500
436.94	318.8500
437.30	314.5500
437.65	335.6000
438.01	321.7500
438.36	327.6500
438.72	326.7500
439.07	318.2500
439.43	322.0500
439.78	342.8000
440.14	359.1500
440.49	332.5500
440.85	338.9000
441.20	350.7000
441.56	346.0000
441.91	374.6500
442.27	350.6000
442.62	352.3000
442.98	357.8500
443.33	351.3000
443.69	359.4500
444.04	350.2500
444.40	343.1500
444.75	377.8500
445.11	377.4000
445.46	389.3000
445.82	386.9500
446.17	364.1000
446.53	382.8500
446.88	420.7000
447.23	361.8000
447.59	364.0000
447.94	361.8500
448.30	394.2000
448.65	380.7000
449.01	399.2000
449.36	402.4500
449.72	434.8000
450.07	447.6000
450.42	432.9000
450.78	418.6000
451.13	436.4500
451.49	423.6000
451.84	404.7000
452.19	410.1500
452.55	439.7000
452.90	438.7000
453.26	464.4000
453.61	482.5000
453.96	412.3500
454.32	459.5500
454.67	461.6000
455.02	431.7000
455.38	450.9500
455.73	450.4500
456.09	485.3000
456.44	490.0500
456.79	474.8500
457.15	478.6500
457.50	454.7000
457.85	476.0000
458.21	467.4500
458.56	495.2500
458.91	482.6500
459.27	459.9000
459.62	471.2500
459.97	475.9000
460.32	491.5500
460.68	493.7000
461.03	491.2500
461.38	509.4500
461.74	552.6000
462.09	532.6500
462.44	514.9000
462.80	506.6000
463.15	509.1000
463.50	517.0500
463.85	552.3000
464.21	530.1500
464.56	564.1500
464.91	530.5500
465.26	543.1000
465.62	538.4500
465.97	573.7500
466.32	569.5500
466.67	573.0500
467.03	581.0500
467.38	588.3500
467.73	597.8500
468.08	608.0500
468.44	617.5000
468.79	618.3000
469.14	583.2000
469.49	617.4000
469.85	638.3000
470.20	691.3000
470.55	684.3000
470.90	688.8000
471.25	663.9000
471.61	683.0000
471.96	695.7500
472.31	712.7500
472.66	715.6000
473.01	734.4000
473.36	754.6500
473.72	739.5500
474.07	769.2500
474.42	777.1500
474.77	777.2500
475.12	800.2000
475.47	823.8500
475.83	826.8500
476.18	824.2500
476.53	822.0500
476.88	856.7500
477.23	872.4500
477.58	860.5000
477.93	883.0000
478.28	875.4000
478.64	896.2000
478.99	919.7500
479.34	931.2000
479.69	951.0500
480.04	971.4000
480.39	977.0500
480.74	967.5000
481.09	1018.0000
481.44	1026.2500
481.79	1017.3000
482.15	1027.5000
482.50	1047.2500
482.85	1051.7000
483.20	1083.6000
483.55	1083.5500
483.90	1105.2000
484.25	1105.1000
484.60	1104.3500
484.95	1133.7000
485.30	1135.1000
485.65	1151.5500
486.00	1165.0500
486.35	1154.1500
486.70	1163.8000
487.05	1202.6500
487.40	1205.0000
487.75	1219.1000
488.10	1229.5500
488.45	1219.7000
488.80	1235.4500
489.15	1258.0500
489.50	1261.8500
489.85	1271.2000
490.20	1270.1500
490.55	1294.3500
490.90	1302.7000
491.25	1310.7000
491.60	1301.3500
491.95	1308.2000
492.30	1329.4000
492.65	1338.6500
493.00	1338.1000
493.35	1343.2500
493.70	1361.0000
494.05	1368.9500
494.40	1387.8000
494.75	1393.2000
495.10	1381.9000
495.45	1395.5500
495.80	1406.6000
496.15	1417.7500
496.50	1408.6500
496.84	1409.5500
497.19	1418.8500
497.54	1440.4500
497.89	1440.0000
498.24	1440.9500
498.59	1465.3500
498.94	1452.3000
499.29	1462.4000
499.64	1468.6000
499.99	1481.9500
500.33	1487.6500
500.68	1488.9000
501.03	1499.7500
501.38	1502.3500
501.73	1525.0000
502.08	1512.7500
502.43	1536.8000
502.77	1543.6500
503.12	1552.1500
503.47	1552.9000
503.82	1569.7500
504.17	1576.8000
504.52	1586.8500
504.86	1590.1500
505.21	1615.1500
505.56	1608.3000
505.91	1617.6000
506.26	1615.3500
506.61	1635.2500
506.95	1642.1000
507.30	1652.6000
507.65	1671.9000
508.00	1667.5500
508.35	1675.0500
508.69	1683.2000
509.04	1700.2500
509.39	1694.8000
509.74	1700.8000
510.08	1715.1500
510.43	1731.9000
510.78	1735.6000
511.13	1743.5000
511.47	1752.4500
511.82	1761.5000
512.17	1755.9000
512.52	1781.0000
512.86	1793.3500
513.21	1803.6500
513.56	1807.7000
513.91	1832.6500
514.25	1832.7500
514.60	1841.0000
514.95	1846.0500
515.30	1856.7000
515.64	1861.8500
515.99	1885.4500
516.34	1894.9500
516.68	1905.0500
517.03	1908.5500
517.38	1911.6500
517.72	1943.3500
518.07	1936.9000
518.42	1945.7500
518.76	1965.9000
519.11	1971.6500
519.46	1985.0000
519.80	1977.2500
520.15	1990.2000
520.50	2006.0500
520.84	2003.2500
521.19	2021.4000
521.54	2026.5000
521.88	2026.1000
522.23	2051.6499
522.58	2047.6500
522.92	2061.5500
523.27	2068.7500
523.61	2074.9500
523.96	2076.2000
524.31	2103.1499
524.65	2111.2500
525.00	2104.5500
525.34	2092.1499
525.69	2101.7500
526.04	2126.7000
526.38	2133.6499
526.73	2133.7500
527.07	2151.7500
527.42	2150.3999
527.76	2163.2500
528.11	2168.3999
528.46	2163.8000
528.80	2173.0000
529.15	2156.1499
529.49	2163.6001
529.84	2172.6499
530.18	2180.2500
530.53	2206.1499
530.87	2199.8501
531.22	2193.9500
531.56	2198.9500
531.91	2209.0500
532.25	2203.4500
532.60	2208.4500
532.94	2220.1001
533.29	2219.4500
533.63	2211.7000
533.98	2215.8501
534.32	2224.8501
534.67	2248.1001
535.01	2257.2500
535.36	2244.6001
535.70	2267.1001
536.05	2271.7500
536.39	2290.3501
536.74	2255.3999
537.08	2244.2500
537.43	2243.7000
537.77	2272.2500
538.12	2297.5000
538.46	2293.9500
538.80	2309.4500
539.15	2288.6499
539.49	2307.3000
539.84	2332.7000
540.18	2325.5500
540.53	2324.5000
540.87	2315.5500
541.21	2338.9500
541.56	2334.1001
541.90	2350.3501
542.25	2337.6001
542.59	2336.6001
542.93	2366.1499
543.28	2347.8501
543.62	2373.3501
543.97	2369.1499
544.31	2373.2000
544.65	2380.8999
545.00	2388.6001
545.34	2401.7500
545.68	2401.6001
546.03	2398.4500
546.37	2414.6499
546.71	2414.3000
547.06	2424.2500
547.40	2431.2000
547.74	2460.5500
548.09	2445.3000
548.43	2451.0000
548.77	2458.1499
549.12	2449.8501
549.46	2454.2500
549.80	2473.3501
550.15	2489.0500
550.49	2485.3999
550.83	2493.8000
551.17	2507.8501
551.52	2507.4500
551.86	2503.2000
552.20	2509.1499
552.55	2535.5000
552.89	2538.2000
553.23	2545.1499
553.57	2559.1499
553.92	2546.2000
554.26	2569.4500
554.60	2559.0000
554.94	2565.5000
555.29	2581.5500
555.63	2591.7000
555.97	2600.7500
556.31	2595.2000
556.66	2611.3999
557.00	2601.8501
557.34	2620.8501
557.68	2638.1499
558.02	2638.5000
558.37	2644.4500
558.71	2649.6001
559.05	2649.8999
559.39	2657.6499
559.73	2680.3999
560.08	2671.3000
560.42	2678.0000
560.76	2681.8000
561.10	2693.7500
561.44	2684.2500
561.78	2706.5000
562.13	2714.9500
562.47	2701.6001
562.81	2724.6001
563.15	2723.7500
563.49	2726.2500
563.83	2746.1499
564.17	2742.2500
564.52	2745.1001
564.86	2758.6001
565.20	2754.1001
565.54	2753.8999
565.88	2755.2000
566.22	2770.2500
566.56	2760.7000
566.90	2781.5500
567.24	2785.2000
567.59	2776.4500
567.93	2779.6001
568.27	2797.1499
568.61	2814.0500
568.95	2796.8501
569.29	2795.7500
569.63	2829.0500
569.97	2818.5500
570.31	2777.1001
570.65	2798.4500
570.99	2821.6001
571.33	2828.0500
571.67	2815.1499
572.01	2808.6001
572.35	2829.3501
572.69	2832.6499
573.03	2845.8999
573.37	2836.9500
573.71	2830.8501
574.05	2820.3000
574.39	2824.9500
574.73	2842.3501
575.07	2829.3501
575.41	2835.2500
575.75	2842.0500
576.09	2868.9500
576.43	2849.3999
576.77	2854.7500
577.11	2842.5500
577.45	2848.0500
577.79	2835.3000
578.13	2858.9500
578.47	2826.5500
578.81	2835.9500
579.15	2842.7500
579.49	2880.7000
579.83	2871.2000
580.17	2874.1499
580.51	2864.6499
580.85	2875.9500
581.19	2868.0500
581.53	2852.3501
581.87	2867.1499
582.20	2871.1001
582.54	2870.7000
582.88	2862.9500
583.22	2856.4500
583.56	2844.8501
583.90	2878.3000
584.24	2868.1499
584.58	2870.7000
584.92	2875.5500
585.25	2876.9500
585.59	2866.4500
585.93	2888.7500
586.27	2903.2500
586.61	2868.7500
586.95	2896.3999
587.29	2902.9500
587.62	2878.5000
587.96	2894.6499
588.30	2898.5500
588.64	2883.6499
588.98	2893.0000
589.31	2910.5000
589.65	2892.0500
589.99	2877.1499
590.33	2897.6001
590.67	2906.4500
591.01	2911.0500
591.34	2917.3501
591.68	2915.0000
592.02	2923.3000
592.36	2917.6499
592.69	2910.7500
593.03	2920.0500
593.37	2929.8999
593.71	2920.8501
594.04	2924.6001
594.38	2921.7500
594.72	2938.7000
595.06	2928.6499
595.39	2928.0000
595.73	2944.7500
596.07	2964.8501
596.41	2955.5000
596.74	2949.7000
597.08	2954.6499
597.42	2955.9500
597.76	2945.2500
598.09	2963.7000
598.43	2945.5500
598.77	2965.1001
599.10	2978.0000
599.44	2966.9500
599.78	2968.4500
600.11	2978.6499
600.45	2983.8999
600.79	2976.7000
601.12	2970.0000
601.46	2994.8999
601.80	3000.2500
602.13	2981.7500
602.47	3005.3999
602.81	2985.5000
603.14	2989.0000
603.48	3009.0000
603.82	3003.7500
604.15	2998.5500
604.49	3009.8501
604.82	3003.6001
605.16	3013.2500
605.50	2996.9500
605.83	3030.3999
606.17	3026.2500
606.50	3023.1499
606.84	3015.1499
607.18	3018.8000
607.51	3018.7500
607.85	3024.8501
608.18	3041.3999
608.52	3030.2500
608.86	3030.2000
609.19	3048.3000
609.53	3019.1499
609.86	3061.9500
610.20	3042.5500
610.53	3033.8501
610.87	3031.2000
611.20	3068.6001
611.54	3023.8999
611.87	3038.0000
612.21	3051.8501
612.54	3037.1499
612.88	3037.6499
613.21	3048.6499
613.55	3058.9500
613.88	3028.5500
614.22	3043.2500
614.55	3026.0500
614.89	3027.5000
615.22	3028.3501
615.56	3029.7000
615.89	3040.8000
616.23	3047.8000
616.56	3007.6001
616.90	3043.0000
617.23	3022.0000
617.57	3048.8999
617.90	3034.6001
618.24	3037.7000
618.57	3041.3501
618.90	3032.7000
619.24	3025.1499
619.57	3035.1499
619.91	3055.5000
620.24	3002.0000
620.58	3034.7500
620.91	3026.3000
621.24	3028.8999
621.58	3038.4500
621.91	3019.1499
622.25	3029.1499
622.58	3024.3999
622.91	3048.2500
623.25	3006.8999
623.58	3021.3000
623.91	3018.3501
624.25	3022.3999
624.58	3026.8501
624.92	3021.3501
625.25	3019.7000
625.58	3003.7000
625.92	3031.5500
626.25	3014.7000
626.58	3035.6499
626.92	3012.8000
627.25	3025.1001
627.58	3008.9500
627.91	3017.8999
628.25	3022.0500
628.58	3023.8000
628.91	3001.2000
629.25	3016.7000
629.58	2997.2000
629.91	3005.2500
630.25	3013.3000
630.58	3001.3000
630.91	2994.6499
631.24	3009.0500
631.58	3010.5000
631.91	3018.3999
632.24	2983.3999
632.57	2990.5500
632.91	2994.4500
633.24	2981.1499
633.57	2998.7000
633.90	2988.0000
634.24	2982.0000
634.57	2984.8000
634.90	2998.5500
635.23	2956.0500
635.56	2965.2000
635.90	2969.6001
636.23	2974.2000
636.56	2968.4500
636.89	2972.0500
637.22	2971.8999
637.56	2968.0500
637.89	2940.3501
638.22	2961.8501
638.55	2961.4500
638.88	2926.2000
639.21	2941.7000
639.55	2930.7000
639.88	2938.3999
640.21	2940.0500
640.54	2944.3999
640.87	2923.0500
641.20	2927.0500
641.53	2947.6001
641.87	2918.9500
642.20	2924.8000
642.53	2917.1499
642.86	2926.0500
643.19	2915.3999
643.52	2920.3999
643.85	2913.9500
644.18	2911.6001
644.51	2904.0500
644.84	2908.8000
645.18	2895.0500
645.51	2893.3999
645.84	2895.5500
646.17	2892.6001
646.50	2912.8000
646.83	2912.2500
647.16	2881.9500
647.49	2893.8501
647.82	2888.4500
648.15	2889.1001
648.48	2896.8501
648.81	2893.3999
649.14	2886.1499
649.47	2887.4500
649.80	2871.8501
650.13	2868.4500
650.46	2888.2000
650.79	2880.3999
651.12	2890.2000
651.45	2876.2500
651.78	2861.0500
652.11	2867.7500
652.44	2857.3000
652.77	2866.0000
653.10	2879.1001
653.43	2881.3000
653.76	2875.5500
654.09	2855.9500
654.42	2865.2000
654.75	2870.8501
655.08	2845.2500
655.41	2850.0500
655.74	2822.4500
656.07	2852.0000
656.39	2854.2000
656.72	2853.3501
657.05	2838.6001
657.38	2864.0000
657.71	2853.9500
658.04	2839.3501
658.37	2839.9500
658.70	2844.4500
659.03	2835.3999
659.36	2836.7500
659.68	2839.7500
660.01	2834.8000
660.34	2833.3000
660.67	2831.7500
661.00	2850.3501
661.33	2816.8000
661.66	2811.5500
661.98	2829.6499
662.31	2825.5500
662.64	2818.7000
662.97	2816.0500
663.30	2806.2500
663.63	2811.1499
663.95	2791.3501
664.28	2800.2000
664.61	2790.3000
664.94	2793.7500
665.27	2806.3000
665.59	2789.7500
665.92	2801.2500
666.25	2776.1499
666.58	2769.5500
666.91	2805.9500
667.23	2773.3501
667.56	2765.2000
667.89	2763.0000
668.22	2771.3999
668.54	2778.3999
668.87	2781.2500
669.20	2764.8999
669.53	2767.7500
669.85	2769.3999
670.18	2748.6499
670.51	2744.6001
670.83	2732.0500
671.16	2753.7500
671.49	2757.2500
671.82	2743.2000
672.14	2724.6499
672.47	2722.3501
672.80	2720.6499
673.12	2726.0000
673.45	2741.7000
673.78	2696.5500
674.10	2723.1001
674.43	2707.7500
674.76	2701.0000
675.08	2708.2000
675.41	2684.3501
675.74	2686.2000
676.06	2690.5500
676.39	2674.2000
676.72	2678.3501
677.04	2681.3999
677.37	2680.3501
677.69	2661.0000
678.02	2655.6001
678.35	2652.5000
678.67	2619.8000
679.00	2650.1001
679.32	2643.9500
679.65	2627.2500
679.98	2641.7000
680.30	2621.5500
680.63	2613.3000
680.95	2601.2000
681.28	2609.9500
681.60	2589.1499
681.93	2592.2500
682.26	2579.8999
682.58	2580.6001
682.91	2586.5500
683.23	2564.2500
683.56	2554.2000
683.88	2568.8000
684.21	2545.8000
684.53	2553.1001
684.86	2556.3999
685.18	2546.2000
685.51	2543.2000
685.83	2529.9500
686.16	2505.3501
686.48	2504.8000
686.81	2520.3000
687.13	2515.1001
687.46	2505.8999
687.78	2511.3000
688.11	2479.1499
688.43	2481.3999
688.76	2475.5500
689.08	2473.5500
689.41	2464.9500
689.73	2451.0000
690.05	2456.1001
690.38	2456.2000
690.70	2452.1001
691.03	2433.1001
691.35	2423.8999
691.68	2399.3501
692.00	2405.4500
692.32	2422.5000
692.65	2409.3501
692.97	2407.1001
693.29	2404.5000
693.62	2385.5000
693.94	2401.0000
694.27	2376.8000
694.59	2343.4500
694.91	2366.3999
695.24	2369.6001
695.56	2349.7500
695.88	2339.8000
696.21	2312.1499
696.53	2298.3501
696.85	2321.4500
697.18	2327.5000
697.50	2313.1001
697.82	2326.0000
698.15	2308.2500
698.47	2299.0000
698.79	2307.8501
699.12	2303.3999
699.44	2266.6001
699.76	2260.8000
700.09	2263.1499
700.41	2266.7000
700.73	2247.3999
701.05	2264.6499
701.38	2243.3999
701.70	2245.8000
702.02	2248.5500
702.34	2236.0000
702.67	2232.5000
702.99	2235.0500
703.31	2216.8999
703.63	2219.7500
703.96	2208.5500
704.28	2202.8000
704.60	2197.3000
704.92	2198.2500
705.25	2190.4500
705.57	2182.3000
705.89	2174.3501
706.21	2175.3501
706.53	2165.8999
706.86	2162.7000
707.18	2163.3501
707.50	2173.9500
707.82	2141.2000
708.14	2150.5000
708.46	2163.8501
708.79	2141.3999
709.11	2153.8000
709.43	2128.8000
709.75	2123.1001
710.07	2112.9500
710.39	2120.4500
710.71	2106.2000
711.04	2099.2500
711.36	2100.3000
711.68	2094.3999
712.00	2094.7000
712.32	2098.8999
712.64	2077.8501
712.96	2066.6001
713.28	2050.0500
713.60	2078.1001
713.92	2052.6001
714.24	2059.2500
714.57	2055.6499
714.89	2049.8000
715.21	2043.1000
715.53	2030.9000
715.85	2032.5000
716.17	2027.4500
716.49	2029.7500
716.81	2018.1000
717.13	2022.6000
717.45	2010.1500
717.77	2001.5500
718.09	1988.8500
718.41	1993.9500
718.73	1988.8000
719.05	1976.5000
719.37	1953.2500
719.69	1966.0000
720.01	1960.6000
720.33	1950.2500
720.65	1943.9500
720.97	1947.8500
721.29	1920.6500
721.61	1939.6500
721.93	1931.8500
722.25	1914.3500
722.57	1911.9000
722.89	1905.4000
723.21	1905.1500
723.52	1894.5500
723.84	1884.3000
724.16	1900.0500
724.48	1893.1000
724.80	1892.4500
725.12	1880.3000
725.44	1881.1500
725.76	1872.3500
726.08	1875.6000
726.40	1856.4000
726.72	1868.4500
727.03	1877.9500
727.35	1865.5500
727.67	1845.2500
727.99	1851.9500
728.31	1845.2500
728.63	1839.8500
728.95	1844.0000
729.26	1830.4000
729.58	1822.8000
729.90	1828.2000
730.22	1799.0500
730.54	1797.7000
730.86	1815.3500
731.17	1816.9500
731.49	1803.6000
731.81	1810.4000
732.13	1804.9000
732.45	1778.7500
732.76	1783.8000
733.08	1785.8500
733.40	1778.5000
733.72	1773.6000
734.03	1765.1000
734.35	1766.5500
734.67	1778.0000
734.99	1759.8500
735.30	1759.7500
735.62	1757.9000
735.94	1752.6500
736.26	1736.6000
736.57	1730.1000
736.89	1751.4500
737.21	1714.9000
737.53	1712.7500
737.84	1708.5500
738.16	1692.5000
738.48	1694.2000
738.79	1705.8500
739.11	1690.6000
739.43	1678.7000
739.74	1673.0000
740.06	1666.7000
740.38	1660.2500
740.69	1653.1500
741.01	1646.8000
741.33	1632.8500
741.64	1637.2500
741.96	1625.4500
742.28	1627.0500
742.59	1606.8500
742.91	1605.1000
743.23	1594.2000
743.54	1602.2500
743.86	1584.2000
744.17	1575.1500
744.49	1576.3000
744.81	1573.3500
745.12	1563.5000
745.44	1545.8000
745.75	1550.3000
746.07	1541.1000
746.38	1539.2500
746.70	1526.5500
747.02	1539.1000
747.33	1518.8000
747.65	1521.9000
747.96	1513.2000
748.28	1506.9000
748.59	1504.8000
748.91	1500.1000
749.22	1502.4500
749.54	1495.8500
749.85	1494.4500
750.17	1491.2000
750.48	1478.0000
750.80	1482.9000
751.11	1477.4500
751.43	1472.3000
751.74	1475.4500
752.06	1466.5000
752.37	1465.3000
752.69	1467.1500
753.00	1456.9500
753.32	1461.6500
753.63	1460.0500
753.95	1455.1500
754.26	1445.3000
754.58	1447.1000
754.89	1449.2500
755.20	1447.5000
755.52	1442.7500
755.83	1435.7000
756.15	1437.8000
756.46	1423.6500
756.78	1422.4000
757.09	1418.3000
757.40	1418.6000
757.72	1413.2000
758.03	1412.3500
758.34	1407.6000
758.66	1414.3500
758.97	1412.6500
759.29	1402.3500
759.60	1405.5000
759.91	1391.4500
760.23	1395.1500
760.54	1396.5000
760.85	1391.3500
761.17	1386.0000
761.48	1384.1500
761.79	1368.4000
762.11	1366.9500
762.42	1368.0000
762.73	1376.4000
763.05	1365.6500
763.36	1375.5000
763.67	1365.9000
763.98	1346.0000
764.30	1329.5500
764.61	1338.4500
764.92	1339.9500
765.23	1336.0500
765.55	1328.9000
765.86	1325.2000
766.17	1328.4500
766.48	1324.5000
766.80	1303.3000
767.11	1319.4000
767.42	1292.1000
767.73	1290.5000
768.05	1295.3500
768.36	1300.5000
768.67	1306.2500
768.98	1289.9000
769.29	1301.7000
769.61	1283.8000
769.92	1262.1500
770.23	1268.6000
770.54	1243.2500
770.85	1255.5500
771.17	1252.7000
771.48	1252.5500
771.79	1245.9000
772.10	1242.8500
772.41	1238.7000
772.72	1225.5000
773.03	1217.6500
773.35	1212.3500
773.66	1198.9500
773.97	1204.5500
774.28	1195.7000
774.59	1185.6000
774.90	1187.8000
775.21	1190.9000
775.52	1185.9000
775.83	1180.2500
776.15	1171.1000
776.46	1157.4500
776.77	1155.7500
777.08	1158.2000
777.39	1156.1500
777.70	1143.3000
778.01	1141.8000
778.32	1144.9000
778.63	1145.7000
778.94	1139.3500
779.25	1125.1500
779.56	1118.0500
779.87	1109.8000
780.18	1098.2000
780.49	1095.8500
780.80	1100.2000
781.11	1086.2500
781.42	1079.9000
781.73	1080.8500
782.04	1061.5000
782.35	1055.4000
782.66	1059.5500
782.97	1052.0000
783.28	1062.4000
783.59	1051.0000
783.90	1050.4000
784.21	1042.6500
784.52	1033.0500
784.83	1030.4500
785.14	1022.7000
785.45	1014.0500
785.76	1004.7000
786.06	1006.6000
786.37	1013.5000
786.68	1003.4000
786.99	992.6500
787.30	990.6000
787.61	993.2000
787.92	979.7500
788.23	973.3500
788.54	981.3500
788.84	968.6500
789.15	971.2500
789.46	962.5500
789.77	953.6000
790.08	955.1000
790.39	936.9500
790.70	947.0500
791.00	949.8500
791.31	927.9000
791.62	934.6500
791.93	923.9500
792.24	920.8500
792.54	916.1000
792.85	903.4000
793.16	905.2500
793.47	897.0500
793.78	896.2000
794.08	893.9500
794.39	886.3500
794.70	887.6000
795.01	879.2000
795.31	873.1500
795.62	867.2000
795.93	871.9500
796.24	871.8500
796.54	859.6000
796.85	861.0000
797.16	842.5500
797.47	842.5000
797.77	841.4000
798.08	835.1500
798.39	837.1500
798.69	836.2000
799.00	823.9500
799.31	823.0000
799.62	816.9500
799.92	813.0500
800.23	810.2000
800.54	808.0000
800.84	800.8500
801.15	793.4000
801.46	797.9500
801.76	791.8500
802.07	777.7500
802.37	778.7500
802.68	772.5500
802.99	775.1500
803.29	768.0500
803.60	760.5000
803.91	751.8500
804.21	754.5000
804.52	760.1500
804.82	750.0000
805.13	752.4000
805.44	746.5500
805.74	738.6500
806.05	743.0500
806.35	732.8500
806.66	728.6000
806.96	732.6000
807.27	719.4500
807.57	720.2500
807.88	717.8500
808.19	707.7500
808.49	712.8500
808.80	702.5500
809.10	699.0500
809.41	704.4000
809.71	690.9500
810.02	692.5500
810.32	685.4500
810.63	690.7000
810.93	688.1000
811.24	680.4500
811.54	683.6500
811.85	680.8000
812.15	671.7500
812.45	666.3000
812.76	664.9000
813.06	657.5500
813.37	657.6000
813.67	659.5500
813.98	652.4000
814.28	641.4000
814.58	644.3000
814.89	640.8500
815.19	638.5500
815.50	632.1000
815.80	632.2500
816.11	624.3000
816.41	627.4500
816.71	626.4000
817.02	623.8500
817.32	621.1500
817.62	614.9500
817.93	616.0000
818.23	607.3000
818.53	609.3500
818.84	608.6500
819.14	598.6000
819.44	600.8000
819.75	595.0500
820.05	591.9500
820.35	585.0500
820.66	582.1500
820.96	586.1500
821.26	579.5000
821.57	580.5000
821.87	576.6500
822.17	575.0500
822.48	574.9500
822.78	573.3500
823.08	564.6000
823.38	567.4500
823.69	560.4000
823.99	561.7500
824.29	556.7000
824.59	550.3000
824.90	556.9500
825.20	551.7500
825.50	545.7000
825.80	542.5500
826.10	546.0000
826.41	541.7000
826.71	535.6000
827.01	534.7500
827.31	536.0500
827.61	533.7500
827.92	534.1000
828.22	529.2000
828.52	526.4500
828.82	524.7500
829.12	519.9000
829.42	520.3000
829.73	515.2000
830.03	513.1500
830.33	513.3500
830.63	507.3500
830.93	508.6000
831.23	502.3500
831.53	504.7000
831.83	500.4000
832.14	493.0000
832.44	496.6000
832.74	489.8500
833.04	490.9000
833.34	493.0000
833.64	488.0000
833.94	484.1500
834.24	485.7500
834.54	486.5500
834.84	479.8500
835.14	477.0000
835.44	474.0000
835.74	472.9500
836.04	473.8500
836.34	472.5500
836.64	471.4500
836.95	468.9500
837.25	463.3000
837.55	465.1000
837.85	460.8500
838.15	459.6000
838.45	457.6500
838.74	454.6500
839.04	448.7500
839.34	450.6000
839.64	445.0500
839.94	442.8000
840.24	440.9500
840.54	446.0500
840.84	444.6000
841.14	439.7500
841.44	438.1500
841.74	440.5000
842.04	430.3000
842.34	433.0500
842.64	428.7000
842.94	429.1500
843.24	428.8000
843.53	424.8500
843.83	426.0000
844.13	421.1500
844.43	418.2500
844.73	420.7500
845.03	416.4000
845.33	413.7500
845.63	414.8000
845.92	408.8500
846.22	409.1500
846.52	408.7000
846.82	406.8000
847.12	402.0500
847.42	402.5000
847.71	401.8000
848.01	400.2000
848.31	392.1000
848.61	394.8000
848.91	393.4000
849.20	394.5000
849.50	391.3500
849.80	391.5500
850.10	386.8500
850.39	384.1500
850.69	383.2500
850.99	384.9500
851.29	381.3500
851.59	376.7000
851.88	379.6000
852.18	376.8500
852.48	374.6000
852.77	368.6000
853.07	373.4000
853.37	368.7000
853.67	365.0000
853.96	366.6500
854.26	363.7500
854.56	363.6500
854.85	362.1500
855.15	360.4000
855.45	360.5500
855.74	355.7000
856.04	353.1500
856.34	356.0500
856.63	353.4500
856.93	347.2000
857.23	348.2500
857.52	344.1000
857.82	342.0500
858.11	345.8500
858.41	343.2500
858.71	340.3500
859.00	339.0500
859.30	336.7000
859.59	333.8000
859.89	332.6000
860.19	328.4000
860.48	329.3000
860.78	327.7500
861.07	328.3000
861.37	327.1000
861.66	326.3500
861.96	322.5000
862.26	322.6500
862.55	319.1000
862.85	317.9500
863.14	318.1000
863.44	314.9000
863.73	312.6500
864.03	309.1000
864.32	312.6500
864.62	309.0500
864.91	306.8500
865.21	304.9000
865.50	301.7000
865.80	302.9000
866.09	303.4000
866.39	301.7500
866.68	301.7000
866.97	296.7500
867.27	296.6000
867.56	293.0000
867.86	293.2500
868.15	289.0500
868.45	286.4500
868.74	287.3000
869.03	285.0500
869.33	285.6000
869.62	282.7000
869.92	282.0500
870.21	277.2000
870.50	275.9500
870.80	275.4000
871.09	274.0000
871.39	271.8500
871.68	269.7500
871.97	269.3500
872.27	271.6000
872.56	266.5000
872.85	266.2500
873.15	264.8000
873.44	261.7000
873.73	261.8000
874.03	260.4000
874.32	258.7000
874.61	257.1000
874.90	256.1000
875.20	253.9500
875.49	253.0000
875.78	248.8500
>>>>>End Spectral Data<<<<<
