OOIBase32 Version 1.0.0.8 Data File
++++++++++++++++++++++++++++++++++++
Date: Wednesday, January 23, 1980, 02:09:27
User: Valued Ocean Optics Customer
Spectrometer Serial Number: Unknown
Spectrometer Channel: Master
Integration Time (msec): 3
Spectra Averaged: 20
Boxcar Smoothing: 0
Correct for Electrical Dark: Disabled
Time Normalized: Disabled
Dual-beam Reference: Disabled
Reference Channel: Master
>>>>>Begin Spectral Data<<<<<
179.00	0.0000
179.38	0.0000
179.75	67.9500
180.13	67.8500
180.51	69.0500
180.88	67.8000
181.26	68.3500
181.64	69.3500
182.02	68.9500
182.39	68.9000
182.77	68.1000
183.15	68.4000
183.52	68.0500
183.90	70.0000
184.28	68.5000
184.65	68.7500
185.03	69.0500
185.41	68.4000
185.78	68.5000
186.16	67.9500
186.53	67.9500
186.91	68.2500
187.29	67.3500
187.66	67.7000
188.04	68.9500
188.42	73.1000
188.79	72.0000
189.17	73.3000
189.55	72.5500
189.92	71.5500
190.30	72.0500
190.67	71.1500
191.05	71.4500
191.43	71.5000
191.80	73.9500
192.18	72.0500
192.56	73.5500
192.93	73.0500
193.31	72.7000
193.68	73.2500
194.06	72.4000
194.44	72.1000
194.81	72.0000
195.19	72.5500
195.56	72.3000
195.94	73.2000
196.32	72.4000
196.69	72.9500
197.07	71.0500
197.44	73.8000
197.82	72.4500
198.19	73.3500
198.57	73.6000
198.95	72.9500
199.32	72.0500
199.70	73.3000
200.07	72.2000
200.45	72.0500
200.82	71.1500
201.20	72.2000
201.57	72.2500
201.95	72.6500
202.33	73.0000
202.70	72.4000
203.08	73.1500
203.45	73.2500
203.83	72.3500
204.20	72.6500
204.58	72.9500
204.95	73.2000
205.33	72.7000
205.70	72.9000
206.08	72.6500
206.45	73.2000
206.83	72.3500
207.20	72.3000
207.58	72.5000
207.95	72.9500
208.33	72.5500
208.70	73.6500
209.08	72.7000
209.45	73.2000
209.83	72.9000
210.20	73.0000
210.58	72.9000
210.95	73.0500
211.33	72.4500
211.70	72.9500
212.08	73.9500
212.45	73.1000
212.83	73.1500
213.20	72.3000
213.58	72.2500
213.95	72.7000
214.33	73.0000
214.70	72.6500
215.07	72.4000
215.45	73.8500
215.82	74.0000
216.20	73.7000
216.57	73.2000
216.95	73.3500
217.32	73.7000
217.70	73.4000
218.07	73.1500
218.44	73.2000
218.82	72.6000
219.19	73.6000
219.57	73.9500
219.94	72.1500
220.32	72.9000
220.69	73.1000
221.06	72.5000
221.44	73.6000
221.81	73.7000
222.19	73.4500
222.56	73.4000
222.93	73.3500
223.31	73.0500
223.68	72.0000
224.06	73.0500
224.43	73.4500
224.80	72.7500
225.18	73.5500
225.55	73.8500
225.92	73.2500
226.30	73.9000
226.67	73.1500
227.05	73.7000
227.42	73.4000
227.79	72.9500
228.17	74.3000
228.54	72.8500
228.91	73.0000
229.29	72.5000
229.66	72.8000
230.03	74.2500
230.41	73.1000
230.78	73.5000
231.15	72.9500
231.53	74.5500
231.90	74.2500
232.27	74.2500
232.65	74.0500
233.02	72.9500
233.39	73.9000
233.77	72.9000
234.14	73.3000
234.51	73.6000
234.89	73.6000
235.26	73.1000
235.63	72.8500
236.01	73.6500
236.38	73.4000
236.75	73.3500
237.12	73.6500
237.50	73.4000
237.87	73.6000
238.24	73.4500
238.62	73.4500
238.99	73.8500
239.36	73.7000
239.73	72.9000
240.11	73.5000
240.48	73.8500
240.85	73.1000
241.23	74.0000
241.60	73.9000
241.97	72.6500
242.34	73.1500
242.72	73.2000
243.09	73.0500
243.46	72.4000
243.83	73.5500
244.21	74.6000
244.58	73.4000
244.95	72.8000
245.32	72.6000
245.70	74.0500
246.07	74.0000
246.44	73.1500
246.81	73.4000
247.18	74.2000
247.56	74.7500
247.93	74.2000
248.30	73.8500
248.67	74.4500
249.04	72.8000
249.42	73.7500
249.79	73.3000
250.16	73.7000
250.53	73.8000
250.90	74.4000
251.28	73.4500
251.65	72.7000
252.02	73.3500
252.39	73.1000
252.76	74.3500
253.14	72.5000
253.51	73.7000
253.88	74.1000
254.25	74.5000
254.62	74.4000
254.99	73.3500
255.37	72.7500
255.74	73.1000
256.11	73.2000
256.48	74.3500
256.85	74.3000
257.22	73.9000
257.59	73.0500
257.97	74.8500
258.34	72.7000
258.71	73.1000
259.08	74.7000
259.45	74.4000
259.82	73.5500
260.19	73.9000
260.56	74.0000
260.94	73.9000
261.31	73.9500
261.68	73.5500
262.05	74.3500
262.42	73.2000
262.79	73.8500
263.16	74.1000
263.53	74.1500
263.90	74.0000
264.28	74.0500
264.65	72.5500
265.02	74.3000
265.39	73.9000
265.76	73.3000
266.13	73.3500
266.50	73.7000
266.87	72.8000
267.24	74.6000
267.61	73.5000
267.98	73.7500
268.35	74.4000
268.72	75.0500
269.09	74.2500
269.46	73.2500
269.84	74.1500
270.21	74.1500
270.58	73.5000
270.95	73.9000
271.32	73.8000
271.69	72.4500
272.06	74.7000
272.43	74.3000
272.80	74.5500
273.17	74.1000
273.54	74.0500
273.91	73.8500
274.28	73.6000
274.65	73.8000
275.02	74.9000
275.39	73.4000
275.76	73.0500
276.13	74.7500
276.50	74.2000
276.87	74.7000
277.24	73.8500
277.61	74.2000
277.98	74.9500
278.35	74.7000
278.72	73.6000
279.09	74.1500
279.46	75.0000
279.83	73.4000
280.20	73.2500
280.57	73.7500
280.94	73.3000
281.31	73.9000
281.67	74.5500
282.04	72.8500
282.41	73.3500
282.78	74.5000
283.15	74.0500
283.52	73.8500
283.89	74.4000
284.26	73.9500
284.63	73.8000
285.00	74.8500
285.37	73.8000
285.74	74.3000
286.11	74.5500
286.48	74.5000
286.85	73.9000
287.21	74.5000
287.58	73.8500
287.95	74.3500
288.32	74.6500
288.69	73.8500
289.06	73.5500
289.43	73.4500
289.80	74.9500
290.17	74.6500
290.54	73.7000
290.90	74.2000
291.27	75.8000
291.64	74.8000
292.01	74.3500
292.38	74.6000
292.75	73.9500
293.12	74.4500
293.48	74.6500
293.85	74.7000
294.22	75.1500
294.59	75.7000
294.96	73.9000
295.33	73.9000
295.70	75.9000
296.06	74.0000
296.43	74.0000
296.80	74.3000
297.17	74.0000
297.54	74.0500
297.91	73.8000
298.27	74.1500
298.64	73.6500
299.01	74.1500
299.38	74.9500
299.75	73.9500
300.11	74.7500
300.48	74.1500
300.85	75.4500
301.22	74.3000
301.59	74.0500
301.95	74.3500
302.32	74.5500
302.69	74.0500
303.06	74.4000
303.43	74.8500
303.79	75.4000
304.16	75.1000
304.53	73.9000
304.90	74.8500
305.26	75.3500
305.63	74.8500
306.00	76.0000
306.37	75.6500
306.73	74.8500
307.10	75.5500
307.47	74.3500
307.84	73.2500
308.20	74.5500
308.57	73.8000
308.94	74.2000
309.31	74.8000
309.67	75.6000
310.04	74.6500
310.41	74.9000
310.77	75.2000
311.14	74.6000
311.51	75.3500
311.88	75.1000
312.24	75.0500
312.61	75.5500
312.98	74.6500
313.34	75.3500
313.71	75.0500
314.08	75.6000
314.44	76.6000
314.81	75.7500
315.18	74.9500
315.55	75.6500
315.91	75.2000
316.28	74.8000
316.65	75.5500
317.01	75.2500
317.38	74.5500
317.75	76.0000
318.11	75.1000
318.48	74.9500
318.84	74.7000
319.21	75.8500
319.58	74.5000
319.94	75.4500
320.31	75.0000
320.68	75.5500
321.04	75.5500
321.41	75.4500
321.78	75.9000
322.14	75.4500
322.51	75.8500
322.87	75.7500
323.24	75.9500
323.61	75.0500
323.97	75.5500
324.34	75.6500
324.70	74.9500
325.07	76.2000
325.44	75.9500
325.80	75.4500
326.17	75.5500
326.53	75.1500
326.90	75.0000
327.27	75.8500
327.63	75.1500
328.00	75.0000
328.36	75.3000
328.73	75.1500
329.09	74.8000
329.46	74.2000
329.83	75.6500
330.19	75.1000
330.56	74.9500
330.92	74.8500
331.29	74.9500
331.65	75.4000
332.02	74.4500
332.38	75.8000
332.75	74.9000
333.11	74.9500
333.48	75.5500
333.84	74.3500
334.21	74.7000
334.58	73.7500
334.94	75.8500
335.31	75.6500
335.67	75.4000
336.04	76.7500
336.40	75.1500
336.77	76.1000
337.13	76.5000
337.50	74.6500
337.86	75.9500
338.22	76.1000
338.59	75.9500
338.95	75.5000
339.32	74.9000
339.68	74.9000
340.05	74.5500
340.41	75.1500
340.78	75.9500
341.14	76.3000
341.51	75.4500
341.87	75.2000
342.24	76.0500
342.60	76.1500
342.96	75.4000
343.33	76.1000
343.69	76.0000
344.06	75.5500
344.42	76.4000
344.79	75.8000
345.15	75.6000
345.51	77.3500
345.88	76.4500
346.24	75.1000
346.61	75.9000
346.97	75.1000
347.34	75.5500
347.70	77.1500
348.06	76.4500
348.43	74.8000
348.79	75.5000
349.16	76.2500
349.52	76.0500
349.88	76.4000
350.25	76.0500
350.61	75.8000
350.97	75.3500
351.34	75.7000
351.70	75.9500
352.07	76.5000
352.43	76.7000
352.79	76.5500
353.16	76.2500
353.52	75.7000
353.88	74.9000
354.25	76.6500
354.61	76.2500
354.97	76.2500
355.34	75.8000
355.70	74.6500
356.06	75.3000
356.43	77.0500
356.79	77.2500
357.15	75.7500
357.52	75.5000
357.88	75.7500
358.24	77.3500
358.60	77.3500
358.97	77.1500
359.33	77.0000
359.69	75.8500
360.06	77.6000
360.42	76.6000
360.78	76.8500
361.14	76.3500
361.51	75.3500
361.87	77.0000
362.23	77.4000
362.60	77.4500
362.96	77.0000
363.32	77.9000
363.68	76.3000
364.05	76.7000
364.41	76.5000
364.77	77.3500
365.13	77.0500
365.50	76.8500
365.86	76.7500
366.22	78.2500
366.58	76.8000
366.95	76.8500
367.31	77.8500
367.67	76.9500
368.03	77.5000
368.39	77.6000
368.76	78.4500
369.12	77.4500
369.48	76.9000
369.84	78.5000
370.20	78.4000
370.57	79.0000
370.93	78.0500
371.29	79.0500
371.65	78.6500
372.01	77.2000
372.38	79.0500
372.74	77.7000
373.10	78.6000
373.46	78.0000
373.82	78.4000
374.18	78.8500
374.55	78.3500
374.91	78.7000
375.27	79.3500
375.63	78.8500
375.99	79.9000
376.35	79.6500
376.71	79.8000
377.08	80.3000
377.44	81.2000
377.80	81.2000
378.16	81.0000
378.52	81.9000
378.88	81.1000
379.24	82.0000
379.60	83.0000
379.97	84.8000
380.33	83.7500
380.69	84.2000
381.05	84.5000
381.41	86.5500
381.77	88.3000
382.13	89.0000
382.49	89.3000
382.85	89.9500
383.21	91.4500
383.57	91.1000
383.94	93.4000
384.30	94.6500
384.66	94.9500
385.02	94.4500
385.38	97.9500
385.74	98.3500
386.10	98.4000
386.46	99.8000
386.82	101.1500
387.18	101.1500
387.54	102.9000
387.90	102.8500
388.26	105.3000
388.62	107.1500
388.98	106.8000
389.34	107.9000
389.70	111.0500
390.06	107.8500
390.42	109.8500
390.78	114.5000
391.14	116.3000
391.50	116.1000
391.86	118.0500
392.22	119.2000
392.58	120.0000
392.94	115.2000
393.30	118.1000
393.66	121.5500
394.02	122.5000
394.38	120.6000
394.74	124.9000
395.10	124.3000
395.46	129.2500
395.82	126.2000
396.18	126.7500
396.54	130.5000
396.90	133.5500
397.26	132.3000
397.62	133.5500
397.98	138.1500
398.34	133.2500
398.70	134.7000
399.05	132.7000
399.41	132.8000
399.77	137.8000
400.13	142.5500
400.49	141.9500
400.85	148.0000
401.21	139.5500
401.57	148.1000
401.93	147.7500
402.29	146.4500
402.65	148.6500
403.00	153.9500
403.36	157.3500
403.72	156.2500
404.08	162.3500
404.44	154.2000
404.80	157.4500
405.16	163.7500
405.52	167.7000
405.87	169.6500
406.23	171.0500
406.59	161.9000
406.95	165.9500
407.31	168.5000
407.67	167.7000
408.03	167.5000
408.38	175.9000
408.74	183.2500
409.10	184.6500
409.46	175.1000
409.82	184.3000
410.17	183.6000
410.53	179.2000
410.89	184.8000
411.25	174.6000
411.61	183.0000
411.97	193.1000
412.32	192.4000
412.68	196.4000
413.04	193.0500
413.40	178.9500
413.75	187.8000
414.11	195.6500
414.47	195.1500
414.83	206.7500
415.19	202.2500
415.54	193.9000
415.90	205.8500
416.26	204.3000
416.62	209.8500
416.97	201.5500
417.33	213.6000
417.69	213.6000
418.05	213.0000
418.40	204.2500
418.76	214.4500
419.12	224.7000
419.48	221.4500
419.83	231.0000
420.19	211.7500
420.55	217.2500
420.90	236.9500
421.26	224.3500
421.62	223.3000
421.98	237.0000
422.33	243.7500
422.69	246.9000
423.05	250.6000
423.40	231.2000
423.76	226.8000
424.12	248.4000
424.47	247.9000
424.83	246.8500
425.19	247.2000
425.54	241.5000
425.90	258.9000
426.26	265.9500
426.61	266.4000
426.97	236.3500
427.33	266.0000
427.68	264.2500
428.04	278.7500
428.40	290.5000
428.75	299.1000
429.11	276.0000
429.47	301.7500
429.82	296.6000
430.18	300.5000
430.53	287.7000
430.89	290.5000
431.25	300.8000
431.60	304.6000
431.96	300.0000
432.31	296.6000
432.67	319.0000
433.03	321.4500
433.38	311.1000
433.74	321.2000
434.09	313.8500
434.45	305.9500
434.81	306.8500
435.16	324.4000
435.52	307.7000
435.87	302.1500
436.23	307.4500
436.58	314.1000
436.94	333.4500
437.30	330.4500
437.65	348.0500
438.01	337.4000
438.36	341.2500
438.72	347.1500
439.07	334.9000
439.43	336.8500
439.78	362.4500
440.14	376.9500
440.49	348.8500
440.85	354.1000
441.20	368.2000
441.56	364.4000
441.91	390.5500
442.27	365.2000
442.62	369.2500
442.98	378.1000
443.33	369.0500
443.69	379.5500
444.04	367.6000
444.40	357.3000
444.75	398.7000
445.11	397.7500
445.46	410.6000
445.82	407.0000
446.17	382.4500
446.53	403.1000
446.88	443.3000
447.23	379.1500
447.59	386.8500
447.94	380.8500
448.30	415.5500
448.65	400.7000
449.01	425.7000
449.36	423.7000
449.72	458.2000
450.07	474.0500
450.42	457.9000
450.78	439.8500
451.13	459.5000
451.49	448.2500
451.84	429.5500
452.19	436.2500
452.55	464.8500
452.90	466.4500
453.26	491.7500
453.61	512.3000
453.96	435.8000
454.32	488.1500
454.67	490.7000
455.02	461.0500
455.38	481.1500
455.73	479.0000
456.09	516.7500
456.44	518.0500
456.79	506.5500
457.15	511.3000
457.50	484.2500
457.85	508.0000
458.21	498.4500
458.56	526.1500
458.91	515.8500
459.27	490.6000
459.62	506.7000
459.97	507.6500
460.32	528.9000
460.68	530.5500
461.03	528.3500
461.38	545.5500
461.74	593.7500
462.09	571.9000
462.44	552.7000
462.80	542.3500
463.15	549.5500
463.50	551.4500
463.85	595.2000
464.21	571.7000
464.56	606.7000
464.91	572.8500
465.26	584.2500
465.62	581.0000
465.97	617.4000
466.32	619.6000
466.67	614.5000
467.03	628.1000
467.38	636.2000
467.73	643.9000
468.08	657.9000
468.44	668.6500
468.79	666.5000
469.14	627.9500
469.49	666.7500
469.85	691.1500
470.20	744.9000
470.55	739.2000
470.90	749.2500
471.25	722.6500
471.61	744.7500
471.96	756.4500
472.31	770.5000
472.66	773.3000
473.01	797.8000
473.36	819.7000
473.72	805.1000
474.07	831.2500
474.42	847.3500
474.77	846.1000
475.12	873.8000
475.47	895.4500
475.83	902.9500
476.18	900.3500
476.53	894.3000
476.88	941.2500
477.23	946.6000
477.58	941.8500
477.93	966.5500
478.28	957.9500
478.64	982.6000
478.99	1008.3000
479.34	1021.2500
479.69	1037.3500
480.04	1064.5500
480.39	1068.1500
480.74	1055.9500
481.09	1114.0000
481.44	1118.7500
481.79	1115.9500
482.15	1125.1000
482.50	1148.9500
482.85	1150.0000
483.20	1191.6500
483.55	1185.8500
483.90	1212.6000
484.25	1209.6000
484.60	1205.4000
484.95	1234.6000
485.30	1247.5000
485.65	1267.0000
486.00	1277.0000
486.35	1264.9500
486.70	1277.1500
487.05	1320.1000
487.40	1321.2500
487.75	1341.5500
488.10	1348.6500
488.45	1341.2000
488.80	1354.5000
489.15	1382.9500
489.50	1388.1000
489.85	1403.4500
490.20	1402.4000
490.55	1421.6000
490.90	1429.3500
491.25	1440.4500
491.60	1437.2000
491.95	1441.4500
492.30	1461.2000
492.65	1478.7500
493.00	1471.1000
493.35	1482.0000
493.70	1497.0500
494.05	1511.6500
494.40	1532.3000
494.75	1537.7500
495.10	1525.4500
495.45	1535.2500
495.80	1545.6000
496.15	1568.4500
496.50	1553.2000
496.84	1555.6000
497.19	1569.0000
497.54	1592.8500
497.89	1590.5000
498.24	1592.9000
498.59	1619.4500
498.94	1605.6000
499.29	1615.3000
499.64	1621.8000
499.99	1639.1500
500.33	1650.1500
500.68	1652.3000
501.03	1659.1000
501.38	1663.1000
501.73	1686.9000
502.08	1682.9500
502.43	1696.7000
502.77	1706.9000
503.12	1711.8500
503.47	1720.6500
503.82	1735.0000
504.17	1741.9500
504.52	1754.4500
504.86	1760.8500
505.21	1791.1000
505.56	1783.7000
505.91	1793.1500
506.26	1790.5500
506.61	1812.6000
506.95	1824.7000
507.30	1827.7000
507.65	1856.1000
508.00	1851.6000
508.35	1858.9000
508.69	1862.2000
509.04	1880.7500
509.39	1876.9000
509.74	1884.8500
510.08	1898.4000
510.43	1920.6000
510.78	1924.9000
511.13	1931.2500
511.47	1944.5000
511.82	1953.1000
512.17	1953.7000
512.52	1983.8000
512.86	1994.5500
513.21	2006.0500
513.56	2007.0000
513.91	2033.0000
514.25	2032.3000
514.60	2043.9500
514.95	2054.3000
515.30	2066.1499
515.64	2068.8501
515.99	2096.8501
516.34	2104.5000
516.68	2122.4500
517.03	2128.7000
517.38	2132.0000
517.72	2162.2500
518.07	2155.1001
518.42	2167.3000
518.76	2184.9500
519.11	2195.8501
519.46	2217.1001
519.80	2203.3999
520.15	2219.8000
520.50	2237.9500
520.84	2240.3999
521.19	2252.5000
521.54	2261.3000
521.88	2258.3999
522.23	2288.9500
522.58	2279.6001
522.92	2289.5000
523.27	2308.6001
523.61	2310.4500
523.96	2316.0000
524.31	2351.9500
524.65	2353.3501
525.00	2350.3000
525.34	2330.1499
525.69	2345.5500
526.04	2376.1001
526.38	2380.7500
526.73	2385.8501
527.07	2402.3999
527.42	2397.7500
527.76	2415.2000
528.11	2430.0500
528.46	2417.7000
528.80	2425.8000
529.15	2408.6001
529.49	2418.2000
529.84	2434.2000
530.18	2434.4500
530.53	2460.0500
530.87	2457.5500
531.22	2459.0000
531.56	2462.2500
531.91	2473.8999
532.25	2466.8501
532.60	2467.4500
532.94	2484.1499
533.29	2482.3000
533.63	2478.4500
533.98	2478.0000
534.32	2488.2500
534.67	2521.2500
535.01	2525.4500
535.36	2517.1001
535.70	2542.1499
536.05	2547.9500
536.39	2558.7000
536.74	2527.8999
537.08	2523.8501
537.43	2519.6001
537.77	2546.2500
538.12	2569.1499
538.46	2574.7000
538.80	2590.1499
539.15	2563.9500
539.49	2583.8999
539.84	2608.7500
540.18	2604.9500
540.53	2606.2000
540.87	2600.8999
541.21	2623.5000
541.56	2616.9500
541.90	2637.6499
542.25	2617.8501
542.59	2622.7500
542.93	2660.7000
543.28	2643.5000
543.62	2659.8501
543.97	2666.1499
544.31	2669.1499
544.65	2670.7500
545.00	2685.1499
545.34	2692.6499
545.68	2697.5000
546.03	2696.2500
546.37	2714.3999
546.71	2714.3000
547.06	2728.0500
547.40	2727.5000
547.74	2760.7500
548.09	2749.2500
548.43	2751.7000
548.77	2764.2500
549.12	2757.5500
549.46	2757.1499
549.80	2778.6001
550.15	2801.4500
550.49	2795.3501
550.83	2802.6001
551.17	2810.6499
551.52	2812.8000
551.86	2810.4500
552.20	2834.1001
552.55	2850.9500
552.89	2851.0000
553.23	2867.1001
553.57	2872.5000
553.92	2870.3999
554.26	2888.2500
554.60	2876.3000
554.94	2887.0500
555.29	2904.0500
555.63	2912.1499
555.97	2929.8000
556.31	2923.5000
556.66	2946.9500
557.00	2925.2000
557.34	2948.6499
557.68	2971.5500
558.02	2977.3501
558.37	2975.1499
558.71	2982.9500
559.05	2981.7000
559.39	2994.1499
559.73	3011.6499
560.08	3009.9500
560.42	3018.0000
560.76	3021.5500
561.10	3037.2500
561.44	3021.7000
561.78	3048.3501
562.13	3058.3999
562.47	3041.7000
562.81	3072.8999
563.15	3065.1499
563.49	3074.4500
563.83	3094.4500
564.17	3090.4500
564.52	3098.1499
564.86	3109.3999
565.20	3104.9500
565.54	3106.3999
565.88	3107.8000
566.22	3126.3501
566.56	3109.7500
566.90	3131.1001
567.24	3137.2500
567.59	3131.2000
567.93	3135.3000
568.27	3151.1499
568.61	3169.9500
568.95	3160.3000
569.29	3156.5000
569.63	3185.8999
569.97	3174.6499
570.31	3132.7500
570.65	3160.1499
570.99	3167.7500
571.33	3189.7000
571.67	3175.2000
572.01	3175.2500
572.35	3199.7500
572.69	3199.0000
573.03	3206.3000
573.37	3201.3000
573.71	3195.4500
574.05	3177.8501
574.39	3184.5500
574.73	3210.5000
575.07	3187.8999
575.41	3201.3999
575.75	3208.6499
576.09	3234.2000
576.43	3218.8999
576.77	3218.2500
577.11	3210.2500
577.45	3214.6499
577.79	3203.0000
578.13	3224.3000
578.47	3187.8999
578.81	3205.4500
579.15	3215.3999
579.49	3247.6499
579.83	3243.8999
580.17	3242.8999
580.51	3242.3000
580.85	3235.2500
581.19	3239.8000
581.53	3224.2000
581.87	3229.7500
582.20	3243.3999
582.54	3246.0500
582.88	3236.7000
583.22	3234.4500
583.56	3218.0000
583.90	3253.8000
584.24	3245.8000
584.58	3244.0000
584.92	3264.1001
585.25	3257.4500
585.59	3248.5500
585.93	3270.2000
586.27	3279.0000
586.61	3237.1001
586.95	3272.8999
587.29	3278.3501
587.62	3251.8000
587.96	3268.8000
588.30	3279.1001
588.64	3263.7000
588.98	3272.3000
589.31	3288.3000
589.65	3271.5500
589.99	3253.6499
590.33	3283.5500
590.67	3286.9500
591.01	3286.5500
591.34	3296.0500
591.68	3295.3999
592.02	3312.1001
592.36	3300.8999
592.69	3294.6499
593.03	3306.3000
593.37	3311.0000
593.71	3303.3999
594.04	3305.2000
594.38	3304.3501
594.72	3323.9500
595.06	3312.5500
595.39	3310.0500
595.73	3323.5000
596.07	3348.2000
596.41	3342.5500
596.74	3342.2500
597.08	3345.5000
597.42	3342.4500
597.76	3326.3000
598.09	3352.3999
598.43	3335.8000
598.77	3353.6499
599.10	3373.0000
599.44	3355.6001
599.78	3357.8000
600.11	3371.0500
600.45	3374.5500
600.79	3373.5500
601.12	3364.3501
601.46	3388.4500
601.80	3394.2500
602.13	3367.1499
602.47	3399.2500
602.81	3378.6499
603.14	3378.9500
603.48	3411.5500
603.82	3403.1001
604.15	3397.3000
604.49	3407.7500
604.82	3401.9500
605.16	3409.9500
605.50	3392.4500
605.83	3427.7000
606.17	3426.0000
606.50	3428.5500
606.84	3410.7000
607.18	3423.9500
607.51	3419.9500
607.85	3428.6499
608.18	3436.7500
608.52	3434.4500
608.86	3437.5000
609.19	3453.2500
609.53	3415.8501
609.86	3460.8000
610.20	3443.6499
610.53	3431.3501
610.87	3426.3501
611.20	3467.6001
611.54	3426.2000
611.87	3446.8501
612.21	3461.6499
612.54	3444.2000
612.88	3443.7500
613.21	3454.8000
613.55	3456.8000
613.88	3428.5500
614.22	3442.8999
614.55	3427.8000
614.89	3425.0500
615.22	3432.5500
615.56	3426.1001
615.89	3448.0000
616.23	3453.8999
616.56	3418.3501
616.90	3446.3999
617.23	3431.6499
617.57	3460.6499
617.90	3442.0500
618.24	3449.1001
618.57	3444.2500
618.90	3435.2000
619.24	3428.5000
619.57	3442.4500
619.91	3463.6499
620.24	3401.8501
620.58	3437.9500
620.91	3423.1001
621.24	3437.7000
621.58	3443.6001
621.91	3420.3999
622.25	3432.7500
622.58	3427.1499
622.91	3450.3000
623.25	3408.7500
623.58	3422.9500
623.91	3418.8501
624.25	3426.3000
624.58	3430.1499
624.92	3414.6001
625.25	3417.5000
625.58	3405.8000
625.92	3435.6499
626.25	3419.3000
626.58	3445.3501
626.92	3411.2500
627.25	3430.3501
627.58	3419.3000
627.91	3430.1499
628.25	3421.0000
628.58	3429.5500
628.91	3400.3999
629.25	3417.2000
629.58	3402.3000
629.91	3407.0500
630.25	3421.5500
630.58	3403.3999
630.91	3403.9500
631.24	3412.1001
631.58	3419.2500
631.91	3422.1001
632.24	3381.1499
632.57	3390.8501
632.91	3400.0000
633.24	3390.1499
633.57	3396.9500
633.90	3389.3000
634.24	3386.7500
634.57	3386.0000
634.90	3399.8000
635.23	3353.0000
635.56	3366.2500
635.90	3362.7000
636.23	3369.6001
636.56	3368.3501
636.89	3372.6499
637.22	3371.4500
637.56	3362.9500
637.89	3339.7500
638.22	3350.2500
638.55	3364.8501
638.88	3319.7500
639.21	3343.5500
639.55	3328.3999
639.88	3331.6499
640.21	3337.3999
640.54	3339.1499
640.87	3313.1001
641.20	3321.8999
641.53	3341.8501
641.87	3317.9500
642.20	3321.2000
642.53	3311.1001
642.86	3316.8000
643.19	3314.7000
643.52	3316.6001
643.85	3312.0000
644.18	3309.0500
644.51	3297.3000
644.84	3302.5500
645.18	3299.2000
645.51	3285.8999
645.84	3290.1499
646.17	3286.1001
646.50	3303.0500
646.83	3306.2000
647.16	3277.3501
647.49	3284.5000
647.82	3288.6499
648.15	3281.3999
648.48	3287.3501
648.81	3285.8999
649.14	3267.4500
649.47	3277.5500
649.80	3264.2000
650.13	3262.6499
650.46	3277.3999
650.79	3269.3501
651.12	3284.1001
651.45	3271.2500
651.78	3249.2500
652.11	3260.3000
652.44	3246.4500
652.77	3256.8999
653.10	3267.9500
653.43	3265.0000
653.76	3262.1499
654.09	3239.9500
654.42	3258.9500
654.75	3257.4500
655.08	3232.8000
655.41	3236.0000
655.74	3208.0500
656.07	3247.1001
656.39	3242.7500
656.72	3239.6499
657.05	3224.1001
657.38	3248.4500
657.71	3245.3000
658.04	3231.6001
658.37	3230.6499
658.70	3237.8000
659.03	3223.1499
659.36	3229.3501
659.68	3229.0000
660.01	3222.0500
660.34	3226.6499
660.67	3219.3000
661.00	3232.2000
661.33	3207.8999
661.66	3202.2500
661.98	3215.2500
662.31	3207.7500
662.64	3195.6499
662.97	3198.3000
663.30	3187.8000
663.63	3193.3000
663.95	3173.2000
664.28	3184.8501
664.61	3176.5000
664.94	3179.9500
665.27	3192.3501
665.59	3178.2000
665.92	3185.4500
666.25	3160.5000
666.58	3147.2500
666.91	3187.9500
667.23	3159.2000
667.56	3149.6001
667.89	3139.5500
668.22	3146.0500
668.54	3154.8000
668.87	3158.0500
669.20	3139.3999
669.53	3145.4500
669.85	3139.7500
670.18	3123.9500
670.51	3117.1499
670.83	3112.3999
671.16	3127.4500
671.49	3135.8999
671.82	3119.9500
672.14	3095.5000
672.47	3099.0000
672.80	3096.2500
673.12	3105.8000
673.45	3117.3999
673.78	3068.8501
674.10	3091.5500
674.43	3078.5000
674.76	3072.1001
675.08	3082.2500
675.41	3051.7000
675.74	3062.7000
676.06	3063.3501
676.39	3038.8000
676.72	3051.5500
677.04	3048.9500
677.37	3044.6001
677.69	3030.4500
678.02	3019.4500
678.35	3016.7000
678.67	2975.2500
679.00	3012.9500
679.32	3004.8501
679.65	2987.7000
679.98	3005.8000
680.30	2978.6001
680.63	2974.0500
680.95	2962.8000
681.28	2972.4500
681.60	2949.8999
681.93	2946.3000
682.26	2941.3999
682.58	2941.6499
682.91	2944.6001
683.23	2922.6001
683.56	2911.3999
683.88	2927.3999
684.21	2900.7500
684.53	2913.5500
684.86	2912.6499
685.18	2886.9500
685.51	2897.3501
685.83	2880.7000
686.16	2852.7500
686.48	2853.7000
686.81	2870.9500
687.13	2861.4500
687.46	2850.3501
687.78	2859.9500
688.11	2825.6499
688.43	2830.0000
688.76	2819.8501
689.08	2819.8000
689.41	2801.8000
689.73	2792.6001
690.05	2799.3000
690.38	2792.6001
690.70	2783.0500
691.03	2768.6499
691.35	2767.8999
691.68	2732.5500
692.00	2739.5500
692.32	2759.1001
692.65	2742.8501
692.97	2745.1001
693.29	2741.0500
693.62	2714.7500
693.94	2734.0500
694.27	2703.0000
694.59	2671.8000
694.91	2699.9500
695.24	2704.6001
695.56	2673.6499
695.88	2661.8501
696.21	2631.3000
696.53	2618.7500
696.85	2648.6001
697.18	2655.3501
697.50	2634.7500
697.82	2649.5500
698.15	2632.7500
698.47	2619.6001
698.79	2624.3000
699.12	2625.6001
699.44	2585.2500
699.76	2579.5000
700.09	2581.5500
700.41	2581.5500
700.73	2563.8501
701.05	2578.0500
701.38	2557.8501
701.70	2564.2500
702.02	2562.6499
702.34	2546.8000
702.67	2551.2500
702.99	2549.1001
703.31	2528.5500
703.63	2528.0500
703.96	2513.5500
704.28	2504.6001
704.60	2497.1499
704.92	2505.6001
705.25	2494.4500
705.57	2491.2000
705.89	2480.6499
706.21	2477.2000
706.53	2475.5000
706.86	2471.7500
707.18	2461.7000
707.50	2477.1001
707.82	2441.2500
708.14	2456.2000
708.46	2462.7500
708.79	2433.2500
709.11	2452.3999
709.43	2426.4500
709.75	2415.0500
710.07	2418.8000
710.39	2417.7000
710.71	2404.3000
711.04	2397.3999
711.36	2399.7500
711.68	2394.6001
712.00	2380.1499
712.32	2385.8999
712.64	2360.5000
712.96	2364.6499
713.28	2343.0000
713.60	2371.7000
713.92	2343.3501
714.24	2347.6001
714.57	2348.3501
714.89	2336.0000
715.21	2325.8501
715.53	2311.9500
715.85	2315.3000
716.17	2314.2500
716.49	2313.9500
716.81	2300.7500
717.13	2305.8999
717.45	2280.7500
717.77	2277.1499
718.09	2271.2000
718.41	2274.8999
718.73	2265.8999
719.05	2251.1001
719.37	2224.0500
719.69	2241.3501
720.01	2235.0000
720.33	2215.8501
720.65	2211.8999
720.97	2212.8000
721.29	2193.3501
721.61	2205.6499
721.93	2202.8501
722.25	2185.2500
722.57	2175.2000
722.89	2174.0000
723.21	2168.1001
723.52	2159.7000
723.84	2146.8501
724.16	2165.5000
724.48	2149.8501
724.80	2151.5500
725.12	2141.2500
725.44	2141.1001
725.76	2126.7500
726.08	2133.3501
726.40	2111.8501
726.72	2127.0000
727.03	2134.2000
727.35	2122.9500
727.67	2106.0500
727.99	2103.1001
728.31	2103.3000
728.63	2098.8999
728.95	2097.7500
729.26	2086.8501
729.58	2077.0000
729.90	2075.5500
730.22	2052.6001
730.54	2054.5000
730.86	2063.1001
731.17	2060.2000
731.49	2047.6500
731.81	2063.6499
732.13	2061.7000
732.45	2025.5500
732.76	2024.8000
733.08	2033.8500
733.40	2024.3000
733.72	2015.4000
734.03	2011.1500
734.35	2009.7500
734.67	2017.1500
734.99	1997.5000
735.30	2000.9000
735.62	1996.0000
735.94	1989.8500
736.26	1970.2500
736.57	1967.7500
736.89	1988.8000
737.21	1955.8500
737.53	1948.9500
737.84	1944.8000
738.16	1926.4500
738.48	1924.3500
738.79	1932.8000
739.11	1919.2000
739.43	1906.2000
739.74	1906.0000
740.06	1892.9500
740.38	1884.3500
740.69	1875.9000
741.01	1877.9500
741.33	1857.6500
741.64	1855.0000
741.96	1842.7500
742.28	1845.0000
742.59	1820.1500
742.91	1821.4000
743.23	1815.9500
743.54	1817.6000
743.86	1798.1000
744.17	1789.4000
744.49	1787.2500
744.81	1784.0500
745.12	1774.0500
745.44	1758.1500
745.75	1760.6000
746.07	1753.3000
746.38	1749.6000
746.70	1736.8000
747.02	1740.9500
747.33	1723.2000
747.65	1728.9500
747.96	1718.1000
748.28	1714.8500
748.59	1712.0000
748.91	1697.2500
749.22	1702.5500
749.54	1693.6000
749.85	1701.0500
750.17	1693.5500
750.48	1681.1000
750.80	1676.2000
751.11	1677.0500
751.43	1672.5500
751.74	1673.5000
752.06	1668.0500
752.37	1660.7500
752.69	1667.2000
753.00	1655.9500
753.32	1657.5500
753.63	1663.0000
753.95	1650.6000
754.26	1637.9500
754.58	1637.0000
754.89	1641.6500
755.20	1633.7000
755.52	1633.6000
755.83	1632.2000
756.15	1629.1000
756.46	1614.3000
756.78	1613.3500
757.09	1604.8000
757.40	1606.2500
757.72	1603.5000
758.03	1601.9000
758.34	1601.1500
758.66	1602.4000
758.97	1598.1000
759.29	1594.6000
759.60	1595.8500
759.91	1576.5500
760.23	1578.2000
760.54	1584.6000
760.85	1572.8000
761.17	1569.9000
761.48	1564.3000
761.79	1545.6000
762.11	1548.0500
762.42	1546.6500
762.73	1559.5500
763.05	1547.0500
763.36	1548.7500
763.67	1546.6500
763.98	1523.1000
764.30	1504.8500
764.61	1517.4000
764.92	1514.1500
765.23	1506.3500
765.55	1502.0500
765.86	1495.4000
766.17	1500.2000
766.48	1495.9500
766.80	1470.7000
767.11	1489.9500
767.42	1457.6500
767.73	1464.5000
768.05	1466.4000
768.36	1468.1000
768.67	1473.7000
768.98	1461.4500
769.29	1473.8000
769.61	1446.7500
769.92	1425.9000
770.23	1430.7000
770.54	1408.1000
770.85	1424.4000
771.17	1415.8500
771.48	1418.2500
771.79	1405.7500
772.10	1401.8500
772.41	1396.2000
772.72	1389.0000
773.03	1372.6500
773.35	1374.2500
773.66	1355.4000
773.97	1358.4000
774.28	1349.9000
774.59	1339.6500
774.90	1346.0500
775.21	1352.8500
775.52	1344.0000
775.83	1334.1000
776.15	1322.3000
776.46	1308.0500
776.77	1303.8500
777.08	1306.8500
777.39	1305.6000
777.70	1285.7500
778.01	1292.9000
778.32	1291.5000
778.63	1295.2000
778.94	1285.3000
779.25	1274.4500
779.56	1263.9500
779.87	1253.0500
780.18	1245.2500
780.49	1239.1000
780.80	1235.4500
781.11	1230.5500
781.42	1221.1000
781.73	1221.1500
782.04	1199.1000
782.35	1194.0000
782.66	1191.3500
782.97	1185.8000
783.28	1197.4500
783.59	1184.5500
783.90	1183.5500
784.21	1173.0000
784.52	1162.2500
784.83	1162.7000
785.14	1151.9500
785.45	1144.8000
785.76	1136.3000
786.06	1140.7500
786.37	1143.1500
786.68	1133.2000
786.99	1123.9500
787.30	1116.9000
787.61	1119.0000
787.92	1103.5500
788.23	1092.1500
788.54	1106.9500
788.84	1095.5500
789.15	1091.2500
789.46	1089.1000
789.77	1073.3500
790.08	1072.7000
790.39	1059.0500
790.70	1073.8500
791.00	1070.4500
791.31	1043.5500
791.62	1053.9500
791.93	1041.5000
792.24	1042.3000
792.54	1033.4500
792.85	1013.6000
793.16	1021.3500
793.47	1011.4500
793.78	1011.1500
794.08	1005.8500
794.39	997.4500
794.70	998.6000
795.01	988.7000
795.31	984.4500
795.62	978.7000
795.93	979.0500
796.24	982.3500
796.54	968.0500
796.85	971.0000
797.16	951.2500
797.47	945.4500
797.77	947.0500
798.08	940.0500
798.39	943.9500
798.69	940.8000
799.00	930.5500
799.31	926.9500
799.62	919.2000
799.92	912.7000
800.23	908.6500
800.54	910.3000
800.84	902.5500
801.15	896.9500
801.46	895.7000
801.76	896.1500
802.07	876.0500
802.37	875.0500
802.68	870.6000
802.99	876.3500
803.29	865.3000
803.60	857.6500
803.91	851.8500
804.21	849.1000
804.52	850.6500
804.82	845.7500
805.13	850.3000
805.44	838.7500
805.74	835.1500
806.05	837.0500
806.35	823.7500
806.66	818.5500
806.96	822.5500
807.27	809.5000
807.57	805.8000
807.88	804.7000
808.19	797.0500
808.49	798.3000
808.80	788.0000
809.10	785.1000
809.41	794.0500
809.71	775.3500
810.02	782.3500
810.32	766.2000
810.63	774.7500
810.93	772.2000
811.24	764.1000
811.54	770.8000
811.85	763.9000
812.15	755.4000
812.45	749.4500
812.76	746.7000
813.06	739.1000
813.37	739.1500
813.67	742.5000
813.98	729.5000
814.28	720.3500
814.58	727.4500
814.89	721.6500
815.19	717.4500
815.50	712.7500
815.80	706.5500
816.11	703.1500
816.41	708.1500
816.71	703.8000
817.02	700.8500
817.32	695.3500
817.62	693.4000
817.93	691.2500
818.23	683.7500
818.53	681.3500
818.84	686.8500
819.14	674.3500
819.44	676.4000
819.75	666.0000
820.05	663.5500
820.35	658.9500
820.66	654.3500
820.96	656.3000
821.26	654.3000
821.57	653.2000
821.87	646.7500
822.17	646.7500
822.48	647.5500
822.78	643.4500
823.08	633.5500
823.38	636.5000
823.69	626.8500
823.99	629.6500
824.29	629.7000
824.59	617.6000
824.90	624.9000
825.20	618.8500
825.50	615.1500
825.80	611.0500
826.10	614.1500
826.41	606.4500
826.71	604.5500
827.01	602.8500
827.31	604.1500
827.61	596.4500
827.92	597.9000
828.22	595.8000
828.52	591.5500
828.82	587.3000
829.12	581.3000
829.42	583.9000
829.73	579.6500
830.03	576.2500
830.33	575.5500
830.63	568.7500
830.93	570.7000
831.23	563.3000
831.53	563.3000
831.83	561.5000
832.14	557.5000
832.44	558.7000
832.74	552.1500
833.04	554.3000
833.34	557.4500
833.64	549.5000
833.94	544.6500
834.24	546.0500
834.54	547.7500
834.84	541.4500
835.14	536.7500
835.44	535.9500
835.74	533.3500
836.04	527.5000
836.34	530.8500
836.64	530.0000
836.95	526.7500
837.25	520.9000
837.55	523.2500
837.85	519.4500
838.15	520.0000
838.45	513.8000
838.74	513.6000
839.04	506.7500
839.34	506.9000
839.64	498.8000
839.94	499.1000
840.24	498.8000
840.54	500.2000
840.84	499.0500
841.14	493.4500
841.44	494.6000
841.74	490.8000
842.04	485.1500
842.34	484.5000
842.64	480.2500
842.94	484.9000
843.24	480.4500
843.53	480.3000
843.83	477.1000
844.13	471.7000
844.43	469.9500
844.73	472.0500
845.03	468.2000
845.33	464.0500
845.63	464.1500
845.92	460.7000
846.22	461.6000
846.52	460.0000
846.82	457.0500
847.12	450.3000
847.42	453.2500
847.71	447.7500
848.01	449.3000
848.31	443.2000
848.61	445.3000
848.91	444.8500
849.20	443.4500
849.50	438.5500
849.80	437.5000
850.10	435.5000
850.39	433.4500
850.69	431.6500
850.99	431.5500
851.29	428.7000
851.59	426.9500
851.88	425.6500
852.18	424.1500
852.48	422.4500
852.77	419.1500
853.07	419.3000
853.37	414.0500
853.67	415.3000
853.96	411.2000
854.26	411.7500
854.56	408.6500
854.85	405.0500
855.15	404.7000
855.45	403.2000
855.74	398.2500
856.04	396.3500
856.34	400.5500
856.63	395.9000
856.93	390.3000
857.23	390.8000
857.52	385.3000
857.82	385.7000
858.11	386.1000
858.41	384.9000
858.71	384.3500
859.00	379.9500
859.30	378.7500
859.59	375.9000
859.89	374.0500
860.19	373.1500
860.48	372.0000
860.78	370.6000
861.07	369.9500
861.37	367.6000
861.66	367.3500
861.96	364.4000
862.26	362.2500
862.55	360.5000
862.85	356.3500
863.14	357.1500
863.44	353.5000
863.73	352.8500
864.03	350.7000
864.32	352.0000
864.62	349.7500
864.91	346.9500
865.21	344.6000
865.50	340.1000
865.80	341.4000
866.09	339.7000
866.39	339.3500
866.68	339.5000
866.97	333.5500
867.27	332.2000
867.56	331.1000
867.86	328.3500
868.15	325.1500
868.45	322.8500
868.74	324.0500
869.03	323.1500
869.33	321.0500
869.62	320.2500
869.92	319.4500
870.21	310.4500
870.50	312.0500
870.80	308.1500
871.09	310.8000
871.39	306.5000
871.68	304.2500
871.97	302.9000
872.27	302.8000
872.56	298.1500
872.85	298.5000
873.15	295.2500
873.44	293.1000
873.73	294.6500
874.03	291.8500
874.32	289.9000
874.61	285.9500
874.90	287.9500
875.20	284.5000
875.49	282.8000
875.78	280.0500
>>>>>End Spectral Data<<<<<
