OOIBase32 Version 1.0.0.8 Data File
++++++++++++++++++++++++++++++++++++
Date: Wednesday, January 23, 1980, 02:12:12
User: Valued Ocean Optics Customer
Spectrometer Serial Number: Unknown
Spectrometer Channel: Master
Integration Time (msec): 3
Spectra Averaged: 20
Boxcar Smoothing: 0
Correct for Electrical Dark: Disabled
Time Normalized: Disabled
Dual-beam Reference: Disabled
Reference Channel: Master
>>>>>Begin Spectral Data<<<<<
179.00	0.0000
179.38	0.0000
179.75	67.1500
180.13	67.1500
180.51	68.3500
180.88	69.0000
181.26	69.3000
181.64	68.2000
182.02	68.6000
182.39	69.4000
182.77	68.4000
183.15	68.6000
183.52	68.1000
183.90	68.5500
184.28	69.2500
184.65	68.0000
185.03	68.0500
185.41	68.2500
185.78	67.6500
186.16	68.5000
186.53	67.7000
186.91	68.5000
187.29	67.4500
187.66	67.6500
188.04	68.5000
188.42	70.4000
188.79	71.5000
189.17	71.2500
189.55	70.7500
189.92	70.5500
190.30	71.5000
190.67	71.2000
191.05	71.1500
191.43	70.3000
191.80	71.1000
192.18	70.9500
192.56	70.9000
192.93	70.8500
193.31	71.1500
193.68	70.4500
194.06	71.9000
194.44	72.1000
194.81	71.4000
195.19	70.6500
195.56	71.0000
195.94	70.7500
196.32	71.4500
196.69	70.4500
197.07	70.7500
197.44	70.9500
197.82	70.6500
198.19	71.2000
198.57	71.1500
198.95	71.9000
199.32	71.3500
199.70	70.7500
200.07	72.1000
200.45	72.7500
200.82	71.9500
201.20	72.0500
201.57	71.6000
201.95	70.4500
202.33	71.5500
202.70	71.6500
203.08	70.6500
203.45	72.3000
203.83	71.0500
204.20	70.8000
204.58	70.7000
204.95	72.2000
205.33	71.9000
205.70	72.1000
206.08	71.2500
206.45	70.7500
206.83	72.2500
207.20	71.6000
207.58	71.3000
207.95	71.4000
208.33	72.1000
208.70	71.5500
209.08	72.0500
209.45	71.4500
209.83	71.5000
210.20	71.0500
210.58	71.2500
210.95	71.1000
211.33	71.5000
211.70	71.4500
212.08	72.0000
212.45	72.3500
212.83	71.1000
213.20	71.3000
213.58	71.9000
213.95	71.6500
214.33	72.2000
214.70	70.8000
215.07	71.5500
215.45	70.9500
215.82	71.5500
216.20	72.2000
216.57	72.1500
216.95	71.7500
217.32	71.6500
217.70	70.8000
218.07	72.4000
218.44	71.1000
218.82	70.8500
219.19	72.3000
219.57	71.7500
219.94	71.5000
220.32	71.6000
220.69	72.0500
221.06	70.6000
221.44	71.6000
221.81	72.6500
222.19	71.3000
222.56	70.9500
222.93	72.5500
223.31	72.3000
223.68	71.4000
224.06	71.5000
224.43	72.0000
224.80	71.3500
225.18	72.7500
225.55	71.4500
225.92	72.2500
226.30	71.5500
226.67	72.1500
227.05	71.7000
227.42	71.9000
227.79	70.6500
228.17	71.7500
228.54	72.2500
228.91	72.2000
229.29	71.4000
229.66	71.5500
230.03	71.2500
230.41	71.3500
230.78	72.2500
231.15	72.2500
231.53	71.2000
231.90	72.4000
232.27	70.8000
232.65	71.3500
233.02	71.0000
233.39	70.8000
233.77	72.0000
234.14	71.4000
234.51	72.1000
234.89	70.4000
235.26	72.3000
235.63	72.1000
236.01	72.1500
236.38	72.1500
236.75	71.4000
237.12	71.8500
237.50	71.8500
237.87	71.3000
238.24	72.1000
238.62	72.3500
238.99	71.7500
239.36	72.4500
239.73	71.2500
240.11	71.9500
240.48	71.1000
240.85	71.7500
241.23	71.6500
241.60	72.1500
241.97	72.2500
242.34	72.4000
242.72	72.5000
243.09	72.4500
243.46	72.0000
243.83	71.6500
244.21	71.2000
244.58	72.5500
244.95	72.0000
245.32	71.8500
245.70	71.8500
246.07	70.9500
246.44	71.4000
246.81	71.8500
247.18	71.0500
247.56	72.4500
247.93	72.6000
248.30	72.7000
248.67	71.3000
249.04	70.5000
249.42	71.5000
249.79	72.3000
250.16	72.7000
250.53	71.8500
250.90	71.0500
251.28	73.2000
251.65	72.9500
252.02	72.5000
252.39	71.4500
252.76	71.5000
253.14	71.0000
253.51	71.9000
253.88	71.6500
254.25	71.8500
254.62	71.1500
254.99	71.1500
255.37	71.6500
255.74	72.2500
256.11	71.2000
256.48	72.5500
256.85	71.6000
257.22	73.3500
257.59	73.0000
257.97	72.2000
258.34	72.1000
258.71	73.1500
259.08	71.6500
259.45	72.4500
259.82	72.2500
260.19	71.7500
260.56	72.5000
260.94	71.8000
261.31	72.9500
261.68	73.2000
262.05	71.6000
262.42	70.9000
262.79	72.5000
263.16	72.0500
263.53	72.0500
263.90	72.9500
264.28	72.6000
264.65	71.5500
265.02	71.0000
265.39	73.2000
265.76	72.0500
266.13	72.8000
266.50	72.8500
266.87	72.1500
267.24	71.7000
267.61	71.5000
267.98	71.8000
268.35	72.5000
268.72	71.8000
269.09	71.9500
269.46	71.8500
269.84	72.1000
270.21	72.7000
270.58	73.0000
270.95	72.0000
271.32	72.5500
271.69	72.1000
272.06	71.6000
272.43	71.7500
272.80	72.3000
273.17	71.4500
273.54	72.3500
273.91	72.8000
274.28	71.6500
274.65	71.5500
275.02	72.1000
275.39	71.7500
275.76	72.5500
276.13	71.7000
276.50	72.6000
276.87	71.5500
277.24	72.6500
277.61	72.1000
277.98	71.1500
278.35	71.1500
278.72	72.2000
279.09	72.0500
279.46	71.8500
279.83	71.5000
280.20	72.3000
280.57	71.1500
280.94	72.2000
281.31	71.8000
281.67	72.5000
282.04	72.5500
282.41	72.4000
282.78	72.0000
283.15	72.3000
283.52	72.0000
283.89	73.4500
284.26	72.7500
284.63	73.1000
285.00	71.8500
285.37	72.3500
285.74	71.9000
286.11	72.4000
286.48	71.7500
286.85	72.1500
287.21	71.8500
287.58	72.6500
287.95	72.9000
288.32	72.1000
288.69	72.8000
289.06	72.6500
289.43	72.7500
289.80	72.2000
290.17	72.2000
290.54	72.6500
290.90	72.0000
291.27	72.5000
291.64	72.5500
292.01	71.8500
292.38	71.9000
292.75	73.5500
293.12	71.9500
293.48	71.8000
293.85	72.2000
294.22	71.7000
294.59	72.2500
294.96	71.9000
295.33	71.7500
295.70	71.8000
296.06	72.4500
296.43	72.6500
296.80	72.1500
297.17	73.1500
297.54	72.5000
297.91	73.1500
298.27	72.4500
298.64	72.3000
299.01	73.0000
299.38	72.9500
299.75	72.0000
300.11	72.8500
300.48	72.7000
300.85	72.2000
301.22	72.0500
301.59	72.4500
301.95	73.3000
302.32	72.2000
302.69	72.2500
303.06	72.5000
303.43	71.2500
303.79	72.6500
304.16	72.6000
304.53	73.9000
304.90	72.5500
305.26	72.7000
305.63	72.8000
306.00	73.3500
306.37	73.0500
306.73	73.4500
307.10	72.6500
307.47	73.0500
307.84	73.1000
308.20	72.8500
308.57	73.0000
308.94	72.1500
309.31	73.5500
309.67	72.0500
310.04	73.1000
310.41	72.3000
310.77	73.6500
311.14	71.9000
311.51	72.7500
311.88	72.7000
312.24	72.5500
312.61	71.7000
312.98	72.1500
313.34	72.7500
313.71	73.0000
314.08	72.8000
314.44	72.9000
314.81	73.5000
315.18	73.0500
315.55	73.6000
315.91	72.8000
316.28	72.5000
316.65	73.6000
317.01	72.9500
317.38	73.4500
317.75	73.5000
318.11	72.8500
318.48	73.2000
318.84	72.9000
319.21	72.6500
319.58	72.6000
319.94	72.8000
320.31	72.8000
320.68	73.0000
321.04	72.5000
321.41	73.4000
321.78	73.5500
322.14	73.0500
322.51	73.2500
322.87	73.0000
323.24	72.8500
323.61	73.5500
323.97	72.5500
324.34	73.0500
324.70	72.0500
325.07	72.9500
325.44	73.6000
325.80	73.1000
326.17	73.0000
326.53	73.4000
326.90	72.0500
327.27	73.4500
327.63	72.4000
328.00	73.0000
328.36	73.8500
328.73	73.5000
329.09	72.2500
329.46	72.8000
329.83	73.2000
330.19	72.7500
330.56	73.0000
330.92	73.5000
331.29	73.3500
331.65	74.5000
332.02	73.5000
332.38	73.2000
332.75	73.2000
333.11	72.4500
333.48	72.0000
333.84	74.0500
334.21	73.5500
334.58	73.2000
334.94	73.6000
335.31	72.4500
335.67	72.7000
336.04	72.6500
336.40	72.7000
336.77	73.6000
337.13	73.8000
337.50	72.6000
337.86	73.9000
338.22	73.6000
338.59	73.4500
338.95	73.3000
339.32	73.6000
339.68	73.3000
340.05	74.1500
340.41	72.5000
340.78	73.4500
341.14	74.5500
341.51	73.8500
341.87	73.2000
342.24	72.6000
342.60	72.7500
342.96	73.3000
343.33	73.7500
343.69	73.9000
344.06	74.1500
344.42	72.9500
344.79	73.9000
345.15	73.1500
345.51	73.0500
345.88	73.4500
346.24	72.8000
346.61	72.6000
346.97	73.7500
347.34	73.6000
347.70	72.8000
348.06	73.5000
348.43	73.4500
348.79	73.4500
349.16	73.9000
349.52	72.8000
349.88	73.2500
350.25	73.6000
350.61	73.1500
350.97	73.7500
351.34	74.3000
351.70	73.7000
352.07	73.2500
352.43	74.4500
352.79	75.0000
353.16	74.0000
353.52	75.0000
353.88	75.0500
354.25	74.9500
354.61	74.2000
354.97	73.6000
355.34	74.3000
355.70	74.9500
356.06	73.8000
356.43	75.0000
356.79	74.2500
357.15	75.0000
357.52	74.9500
357.88	74.3000
358.24	74.5500
358.60	74.5500
358.97	74.6500
359.33	74.5000
359.69	74.3000
360.06	74.4000
360.42	74.6000
360.78	75.6000
361.14	74.2500
361.51	75.5000
361.87	75.5500
362.23	75.3000
362.60	75.4500
362.96	74.5000
363.32	74.8500
363.68	75.3500
364.05	75.0500
364.41	74.8500
364.77	74.1000
365.13	75.2500
365.50	76.2500
365.86	76.1500
366.22	75.9000
366.58	75.4000
366.95	75.6000
367.31	75.6000
367.67	74.7500
368.03	75.6500
368.39	76.0500
368.76	76.0000
369.12	75.5000
369.48	76.1000
369.84	76.0000
370.20	76.9500
370.57	76.6000
370.93	75.8500
371.29	76.3000
371.65	76.4500
372.01	77.0000
372.38	77.1000
372.74	76.3000
373.10	75.6500
373.46	77.6500
373.82	77.9000
374.18	76.8000
374.55	75.8500
374.91	77.5500
375.27	77.1500
375.63	76.8500
375.99	77.3500
376.35	77.6000
376.71	77.5000
377.08	76.3000
377.44	78.1500
377.80	78.0500
378.16	78.0000
378.52	77.3500
378.88	77.7000
379.24	76.9500
379.60	78.0000
379.97	78.6500
380.33	79.6000
380.69	78.9000
381.05	78.3000
381.41	77.7000
381.77	79.4500
382.13	79.5500
382.49	79.7000
382.85	79.3000
383.21	80.4000
383.57	80.1000
383.94	79.2000
384.30	81.3500
384.66	81.0000
385.02	80.3500
385.38	79.8500
385.74	80.7000
386.10	80.5500
386.46	80.4500
386.82	80.7500
387.18	80.8000
387.54	81.5500
387.90	81.3500
388.26	82.6500
388.62	81.3500
388.98	80.9500
389.34	81.7500
389.70	83.1000
390.06	82.0000
390.42	82.7500
390.78	82.6500
391.14	83.8000
391.50	82.4000
391.86	84.0500
392.22	83.4500
392.58	83.9500
392.94	83.3000
393.30	84.8000
393.66	84.2500
394.02	85.0000
394.38	83.3000
394.74	84.5500
395.10	84.5000
395.46	86.0500
395.82	85.2000
396.18	85.2500
396.54	86.0500
396.90	86.4500
397.26	86.5000
397.62	87.5500
397.98	88.1000
398.34	87.5500
398.70	86.7500
399.05	85.2500
399.41	85.1000
399.77	86.5500
400.13	86.0500
400.49	88.2000
400.85	88.9000
401.21	87.2500
401.57	89.5000
401.93	89.3000
402.29	89.3500
402.65	88.8000
403.00	89.8000
403.36	90.1500
403.72	90.4000
404.08	90.6000
404.44	89.5500
404.80	91.1500
405.16	93.1000
405.52	93.4500
405.87	93.2500
406.23	93.0000
406.59	91.4500
406.95	91.4500
407.31	91.5500
407.67	93.8000
408.03	91.4500
408.38	94.9500
408.74	95.2500
409.10	96.2500
409.46	94.6000
409.82	95.7000
410.17	95.6500
410.53	94.4500
410.89	96.1500
411.25	93.9000
411.61	95.3000
411.97	96.7500
412.32	96.2500
412.68	97.4000
413.04	96.5000
413.40	94.4000
413.75	96.6000
414.11	98.2500
414.47	98.5000
414.83	100.1000
415.19	100.2000
415.54	98.5500
415.90	100.5500
416.26	99.3000
416.62	100.6500
416.97	98.2500
417.33	101.0000
417.69	100.5000
418.05	99.9000
418.40	99.7500
418.76	100.3500
419.12	103.4500
419.48	102.1000
419.83	105.1500
420.19	99.5000
420.55	101.3500
420.90	105.2500
421.26	102.3000
421.62	103.8000
421.98	106.5500
422.33	106.0500
422.69	106.5500
423.05	107.3000
423.40	105.5500
423.76	103.7000
424.12	108.4500
424.47	106.9500
424.83	107.1500
425.19	107.2000
425.54	105.9000
425.90	108.9000
426.26	111.3500
426.61	111.4000
426.97	104.8000
427.33	111.6500
427.68	110.3500
428.04	113.1000
428.40	115.5500
428.75	115.8000
429.11	110.9000
429.47	116.7000
429.82	115.9000
430.18	115.7500
430.53	114.9500
430.89	114.4500
431.25	117.8000
431.60	117.4500
431.96	117.0000
432.31	116.1000
432.67	121.6500
433.03	120.9500
433.38	119.5000
433.74	122.3000
434.09	119.4000
434.45	116.8000
434.81	116.5000
435.16	120.6000
435.52	118.9500
435.87	116.9500
436.23	119.0000
436.58	118.8500
436.94	123.1000
437.30	122.7000
437.65	126.1000
438.01	123.8500
438.36	125.2000
438.72	125.2500
439.07	123.2500
439.43	122.9000
439.78	126.8500
440.14	129.7500
440.49	124.8500
440.85	127.3500
441.20	128.8000
441.56	127.1500
441.91	133.5000
442.27	129.6000
442.62	128.9500
442.98	130.3000
443.33	130.2500
443.69	131.0000
444.04	131.2500
444.40	126.3500
444.75	134.3000
445.11	135.4500
445.46	137.2000
445.82	136.1500
446.17	132.0500
446.53	136.2500
446.88	141.4000
447.23	130.1500
447.59	130.9500
447.94	130.5500
448.30	137.4000
448.65	134.4000
449.01	140.0000
449.36	139.7500
449.72	146.0000
450.07	148.2000
450.42	145.2500
450.78	141.6000
451.13	146.2000
451.49	142.6500
451.84	138.7500
452.19	141.3500
452.55	146.1500
452.90	146.7500
453.26	151.3000
453.61	155.3000
453.96	142.2500
454.32	149.9500
454.67	152.3500
455.02	146.4500
455.38	149.6500
455.73	149.4000
456.09	156.6500
456.44	157.4000
456.79	154.4500
457.15	154.9500
457.50	149.8500
457.85	154.0000
458.21	151.0000
458.56	157.3000
458.91	157.2000
459.27	151.0500
459.62	152.5000
459.97	155.2000
460.32	157.9500
460.68	160.0000
461.03	159.1000
461.38	160.9500
461.74	171.0500
462.09	168.0000
462.44	162.0500
462.80	161.6500
463.15	160.5500
463.50	163.1000
463.85	171.1500
464.21	165.5000
464.56	172.9500
464.91	165.3000
465.26	168.6500
465.62	166.6500
465.97	173.7500
466.32	173.8500
466.67	175.3500
467.03	176.3000
467.38	177.2000
467.73	179.7000
468.08	181.8000
468.44	183.1000
468.79	183.1000
469.14	176.7500
469.49	182.7000
469.85	187.8000
470.20	198.9500
470.55	196.9500
470.90	198.2000
471.25	193.5500
471.61	198.5000
471.96	200.9000
472.31	203.7000
472.66	204.7500
473.01	206.7500
473.36	212.1500
473.72	208.7500
474.07	214.2500
474.42	219.2000
474.77	218.0500
475.12	222.0000
475.47	227.1000
475.83	228.7500
476.18	226.9000
476.53	226.1500
476.88	236.0500
477.23	237.0000
477.58	235.8500
477.93	239.1500
478.28	237.8500
478.64	241.5000
478.99	247.2000
479.34	249.1000
479.69	253.0500
480.04	257.4000
480.39	257.9000
480.74	255.8000
481.09	266.5500
481.44	267.3500
481.79	269.1500
482.15	270.6000
482.50	273.0500
482.85	273.9000
483.20	280.8000
483.55	281.6000
483.90	284.1000
484.25	284.5000
484.60	284.8500
484.95	287.8000
485.30	290.8000
485.65	295.4500
486.00	297.6000
486.35	295.9000
486.70	298.0000
487.05	306.1500
487.40	306.6000
487.75	309.0500
488.10	312.3500
488.45	308.9000
488.80	313.2500
489.15	317.0500
489.50	319.2000
489.85	319.5000
490.20	321.4500
490.55	324.5500
490.90	327.6000
491.25	328.6500
491.60	325.6000
491.95	328.3000
492.30	331.4500
492.65	334.9000
493.00	335.2500
493.35	336.0000
493.70	341.0500
494.05	341.6500
494.40	345.8000
494.75	347.8000
495.10	349.8500
495.45	349.3000
495.80	351.5000
496.15	355.4000
496.50	353.4500
496.84	353.1500
497.19	357.8000
497.54	364.3500
497.89	362.3500
498.24	363.1000
498.59	369.3000
498.94	368.4000
499.29	371.0000
499.64	373.4000
499.99	377.2500
500.33	379.4500
500.68	383.1500
501.03	385.1000
501.38	389.0000
501.73	393.9500
502.08	395.3000
502.43	399.4500
502.77	404.6000
503.12	409.9500
503.47	413.3000
503.82	418.6000
504.17	423.4500
504.52	429.1000
504.86	437.7500
505.21	445.8000
505.56	451.9000
505.91	456.3500
506.26	461.1000
506.61	474.2500
506.95	479.8000
507.30	490.6500
507.65	504.1500
508.00	511.1500
508.35	521.7000
508.69	532.7500
509.04	543.4500
509.39	556.2500
509.74	568.4000
510.08	580.2000
510.43	599.1500
510.78	615.4500
511.13	630.2500
511.47	648.7000
511.82	662.2000
512.17	680.6500
512.52	703.8500
512.86	727.2000
513.21	746.8000
513.56	765.0500
513.91	795.1500
514.25	814.9000
514.60	843.8000
514.95	865.7500
515.30	885.8000
515.64	907.4500
515.99	946.0000
516.34	970.9500
516.68	996.8500
517.03	1021.9500
517.38	1048.2000
517.72	1086.5500
518.07	1104.2000
518.42	1132.0000
518.76	1164.4500
519.11	1187.1500
519.46	1225.0500
519.80	1236.4500
520.15	1264.7000
520.50	1297.4000
520.84	1320.5500
521.19	1346.6500
521.54	1365.9000
521.88	1382.7000
522.23	1416.5000
522.58	1430.9500
522.92	1451.9500
523.27	1476.8000
523.61	1490.1000
523.96	1516.6000
524.31	1543.6500
524.65	1560.5500
525.00	1566.8500
525.34	1568.1500
525.69	1586.6000
526.04	1615.5000
526.38	1626.2000
526.73	1639.5000
527.07	1660.7500
527.42	1668.1500
527.76	1680.8000
528.11	1694.9500
528.46	1694.4000
528.80	1706.6500
529.15	1706.0000
529.49	1712.8000
529.84	1726.5000
530.18	1735.3000
530.53	1756.1500
530.87	1756.2000
531.22	1760.2000
531.56	1766.8000
531.91	1775.9500
532.25	1778.0000
532.60	1781.3000
532.94	1795.2500
533.29	1797.2000
533.63	1794.0000
533.98	1789.5000
534.32	1802.8500
534.67	1827.2500
535.01	1832.9500
535.36	1830.2500
535.70	1848.7500
536.05	1850.5000
536.39	1860.3500
536.74	1840.9000
537.08	1837.7500
537.43	1835.7500
537.77	1852.7000
538.12	1875.3500
538.46	1876.6500
538.80	1890.7000
539.15	1870.6000
539.49	1885.6000
539.84	1906.9500
540.18	1909.0500
540.53	1903.7000
540.87	1902.5500
541.21	1919.2000
541.56	1915.6500
541.90	1925.0500
542.25	1917.7500
542.59	1920.9000
542.93	1945.0000
543.28	1933.4000
543.62	1943.7500
543.97	1944.0500
544.31	1952.3000
544.65	1956.1000
545.00	1965.3500
545.34	1973.3000
545.68	1970.6500
546.03	1971.5500
546.37	1986.4500
546.71	1990.4500
547.06	1995.9500
547.40	2001.5500
547.74	2025.1000
548.09	2010.6500
548.43	2013.3000
548.77	2019.6000
549.12	2016.7000
549.46	2026.6000
549.80	2038.1500
550.15	2049.0000
550.49	2044.3000
550.83	2052.5000
551.17	2062.0500
551.52	2067.1001
551.86	2065.3000
552.20	2071.9500
552.55	2093.6499
552.89	2087.1499
553.23	2093.7500
553.57	2105.7500
553.92	2100.3999
554.26	2116.0000
554.60	2109.0000
554.94	2116.8999
555.29	2127.6499
555.63	2133.6001
555.97	2151.0500
556.31	2141.0000
556.66	2157.8999
557.00	2146.5000
557.34	2165.6001
557.68	2184.0000
558.02	2176.6001
558.37	2183.8000
558.71	2184.5500
559.05	2182.0000
559.39	2196.8501
559.73	2207.5500
560.08	2205.7000
560.42	2214.5500
560.76	2216.2000
561.10	2222.6001
561.44	2215.8501
561.78	2239.8999
562.13	2242.1499
562.47	2230.0000
562.81	2247.0500
563.15	2250.7000
563.49	2254.2500
563.83	2272.3999
564.17	2272.5000
564.52	2271.6499
564.86	2274.8000
565.20	2274.0000
565.54	2274.3999
565.88	2281.0000
566.22	2293.1001
566.56	2283.0000
566.90	2295.1001
567.24	2302.3501
567.59	2299.5000
567.93	2307.8000
568.27	2315.7500
568.61	2329.7500
568.95	2315.9500
569.29	2318.0000
569.63	2344.5500
569.97	2330.1499
570.31	2298.6499
570.65	2318.0500
570.99	2329.5000
571.33	2341.9500
571.67	2328.0000
572.01	2333.2500
572.35	2342.0500
572.69	2349.3501
573.03	2353.0500
573.37	2347.1499
573.71	2340.1001
574.05	2330.8000
574.39	2340.5000
574.73	2356.6499
575.07	2336.9500
575.41	2349.8501
575.75	2357.7500
576.09	2373.9500
576.43	2366.6001
576.77	2361.1499
577.11	2354.8501
577.45	2361.6001
577.79	2354.8999
578.13	2368.1499
578.47	2345.1001
578.81	2351.7000
579.15	2361.7500
579.49	2388.6499
579.83	2377.2500
580.17	2377.8501
580.51	2380.3999
580.85	2382.8000
581.19	2379.3000
581.53	2367.5000
581.87	2371.7000
582.20	2382.2000
582.54	2382.1499
582.88	2380.5000
583.22	2361.1499
583.56	2349.8501
583.90	2384.5000
584.24	2377.2500
584.58	2379.2500
584.92	2395.0500
585.25	2394.3000
585.59	2388.8999
585.93	2400.0500
586.27	2409.0500
586.61	2377.0000
586.95	2402.1499
587.29	2407.3999
587.62	2388.2000
587.96	2400.0500
588.30	2403.7500
588.64	2398.7000
588.98	2397.5000
589.31	2414.5500
589.65	2405.1001
589.99	2387.3000
590.33	2412.9500
590.67	2415.7500
591.01	2412.6499
591.34	2429.1499
591.68	2420.8000
592.02	2428.3501
592.36	2424.1499
592.69	2421.1001
593.03	2431.8999
593.37	2430.2500
593.71	2429.3501
594.04	2428.1001
594.38	2428.1499
594.72	2444.6001
595.06	2435.6001
595.39	2435.3999
595.73	2442.1499
596.07	2460.5000
596.41	2453.3501
596.74	2452.1001
597.08	2454.6499
597.42	2455.9500
597.76	2451.3000
598.09	2462.9500
598.43	2446.3501
598.77	2465.2500
599.10	2482.7500
599.44	2466.0500
599.78	2469.3999
600.11	2479.0500
600.45	2487.5500
600.79	2480.1001
601.12	2472.0000
601.46	2489.8999
601.80	2492.0500
602.13	2474.8999
602.47	2502.0000
602.81	2486.4500
603.14	2492.6001
603.48	2509.2000
603.82	2500.5500
604.15	2498.9500
604.49	2505.9500
604.82	2506.5500
605.16	2511.6499
605.50	2494.7500
605.83	2522.7000
606.17	2521.0000
606.50	2523.5500
606.84	2504.0500
607.18	2516.2500
607.51	2520.4500
607.85	2519.6499
608.18	2532.7000
608.52	2527.6001
608.86	2528.6499
609.19	2542.8999
609.53	2513.7000
609.86	2548.2500
610.20	2534.8000
610.53	2530.7500
610.87	2520.9500
611.20	2557.0500
611.54	2524.3000
611.87	2536.3999
612.21	2537.8000
612.54	2529.3999
612.88	2532.2000
613.21	2549.1499
613.55	2543.8000
613.88	2529.8999
614.22	2533.7500
614.55	2515.2500
614.89	2525.2500
615.22	2521.8999
615.56	2518.9500
615.89	2541.0500
616.23	2548.3000
616.56	2513.7000
616.90	2537.8999
617.23	2523.3999
617.57	2541.5000
617.90	2537.5500
618.24	2536.2500
618.57	2535.2000
618.90	2526.5000
619.24	2522.5500
619.57	2531.6001
619.91	2547.4500
620.24	2504.5500
620.58	2535.6001
620.91	2527.8999
621.24	2532.9500
621.58	2537.1499
621.91	2520.6001
622.25	2527.5000
622.58	2526.3000
622.91	2548.2000
623.25	2515.9500
623.58	2521.6001
623.91	2516.7000
624.25	2521.7500
624.58	2530.2500
624.92	2522.4500
625.25	2523.0000
625.58	2503.9500
625.92	2528.2500
626.25	2517.7500
626.58	2537.7000
626.92	2513.0500
627.25	2523.6499
627.58	2515.8000
627.91	2524.3501
628.25	2522.9500
628.58	2526.3501
628.91	2509.8999
629.25	2517.6001
629.58	2506.9500
629.91	2507.8501
630.25	2521.6001
630.58	2503.8999
630.91	2506.8000
631.24	2512.8999
631.58	2520.9500
631.91	2521.0500
632.24	2488.3000
632.57	2495.0500
632.91	2498.3999
633.24	2494.3501
633.57	2503.0500
633.90	2493.7000
634.24	2492.1001
634.57	2495.3501
634.90	2498.6001
635.23	2471.2000
635.56	2479.5000
635.90	2480.5000
636.23	2478.4500
636.56	2476.3501
636.89	2479.6001
637.22	2483.5000
637.56	2479.6499
637.89	2462.8999
638.22	2475.7000
638.55	2472.7000
638.88	2447.3501
639.21	2456.9500
639.55	2453.7000
639.88	2457.6499
640.21	2460.9500
640.54	2460.3999
640.87	2446.7500
641.20	2444.2500
641.53	2455.6499
641.87	2449.2000
642.20	2441.8000
642.53	2442.7000
642.86	2443.3000
643.19	2444.9500
643.52	2437.7500
643.85	2436.5000
644.18	2438.3999
644.51	2429.2000
644.84	2435.8999
645.18	2422.5000
645.51	2416.8999
645.84	2425.0500
646.17	2422.8999
646.50	2429.9500
646.83	2430.6001
647.16	2403.3999
647.49	2418.6001
647.82	2415.0500
648.15	2416.6499
648.48	2416.8999
648.81	2424.6001
649.14	2407.4500
649.47	2412.2500
649.80	2403.5500
650.13	2399.0000
650.46	2420.2000
650.79	2411.2500
651.12	2420.2500
651.45	2413.4500
651.78	2394.1001
652.11	2405.7500
652.44	2391.2000
652.77	2401.8000
653.10	2412.9500
653.43	2403.0500
653.76	2403.7500
654.09	2384.9500
654.42	2398.4500
654.75	2397.7500
655.08	2381.1499
655.41	2384.6499
655.74	2366.1499
656.07	2389.3501
656.39	2384.3000
656.72	2378.5500
657.05	2374.5500
657.38	2391.8999
657.71	2392.3999
658.04	2374.7000
658.37	2374.4500
658.70	2385.2500
659.03	2372.5000
659.36	2379.1001
659.68	2375.5000
660.01	2374.3999
660.34	2376.6001
660.67	2374.8501
661.00	2386.0000
661.33	2358.0000
661.66	2358.1001
661.98	2364.9500
662.31	2367.3000
662.64	2357.8000
662.97	2355.0000
663.30	2347.5500
663.63	2348.1499
663.95	2338.0500
664.28	2344.8999
664.61	2336.5500
664.94	2335.7000
665.27	2352.7000
665.59	2337.5000
665.92	2342.9500
666.25	2325.8000
666.58	2317.3999
666.91	2349.8000
667.23	2327.2500
667.56	2322.2000
667.89	2310.7500
668.22	2322.2500
668.54	2325.2000
668.87	2326.8501
669.20	2314.4500
669.53	2315.1001
669.85	2314.8999
670.18	2301.9500
670.51	2294.9500
670.83	2293.7500
671.16	2304.0500
671.49	2307.3000
671.82	2289.6499
672.14	2275.9500
672.47	2278.7500
672.80	2278.7000
673.12	2276.7500
673.45	2287.4500
673.78	2254.0500
674.10	2280.2500
674.43	2265.5500
674.76	2255.8501
675.08	2265.2500
675.41	2244.3000
675.74	2247.6001
676.06	2245.5000
676.39	2235.7500
676.72	2237.8999
677.04	2239.1499
677.37	2240.3999
677.69	2225.2500
678.02	2216.9500
678.35	2214.5000
678.67	2188.1001
679.00	2212.3000
679.32	2210.5000
679.65	2198.1001
679.98	2205.3501
680.30	2193.3000
680.63	2180.7000
680.95	2171.7500
681.28	2180.0500
681.60	2164.8501
681.93	2165.9500
682.26	2158.3000
682.58	2155.3000
682.91	2157.8501
683.23	2140.4500
683.56	2134.3000
683.88	2147.0000
684.21	2131.3501
684.53	2133.3000
684.86	2136.7500
685.18	2121.3000
685.51	2124.9500
685.83	2118.2500
686.16	2092.2000
686.48	2095.3000
686.81	2109.3999
687.13	2103.7500
687.46	2098.7500
687.78	2100.5500
688.11	2073.5000
688.43	2074.8999
688.76	2069.6001
689.08	2065.8501
689.41	2058.6499
689.73	2046.7500
690.05	2048.7500
690.38	2047.9000
690.70	2044.6500
691.03	2029.1500
691.35	2024.2000
691.68	2006.6000
692.00	2008.2000
692.32	2024.4500
692.65	2014.0000
692.97	2006.5000
693.29	2007.3500
693.62	1989.4000
693.94	2008.1500
694.27	1981.7000
694.59	1957.5500
694.91	1972.2000
695.24	1985.8000
695.56	1955.9000
695.88	1950.8500
696.21	1928.8500
696.53	1915.9000
696.85	1936.3000
697.18	1943.3500
697.50	1927.1500
697.82	1936.9500
698.15	1927.4500
698.47	1921.9500
698.79	1924.0500
699.12	1929.0000
699.44	1896.9500
699.76	1892.2000
700.09	1893.4000
700.41	1891.5000
700.73	1875.6500
701.05	1887.7000
701.38	1878.0000
701.70	1876.7000
702.02	1875.5500
702.34	1863.3000
702.67	1871.9000
702.99	1863.1000
703.31	1850.4500
703.63	1856.2500
703.96	1844.5500
704.28	1828.9000
704.60	1829.6000
704.92	1843.5500
705.25	1827.2000
705.57	1825.5000
705.89	1819.2000
706.21	1813.7000
706.53	1810.1500
706.86	1809.2500
707.18	1805.7000
707.50	1814.6000
707.82	1787.9000
708.14	1796.8000
708.46	1803.4500
708.79	1779.8500
709.11	1798.0000
709.43	1775.9500
709.75	1773.7500
710.07	1769.7000
710.39	1770.5000
710.71	1759.0000
711.04	1754.6500
711.36	1750.3500
711.68	1746.4000
712.00	1741.9500
712.32	1747.4000
712.64	1728.8500
712.96	1727.6500
713.28	1711.6000
713.60	1731.3000
713.92	1714.5000
714.24	1719.5000
714.57	1712.7000
714.89	1707.8500
715.21	1703.3500
715.53	1692.3500
715.85	1691.1500
716.17	1694.6000
716.49	1694.1000
716.81	1686.0500
717.13	1685.9000
717.45	1670.2000
717.77	1668.5500
718.09	1661.6000
718.41	1663.0000
718.73	1657.8000
719.05	1652.2500
719.37	1627.2000
719.69	1637.5000
720.01	1637.9500
720.33	1627.0000
720.65	1621.9000
720.97	1620.4500
721.29	1599.6500
721.61	1614.6500
721.93	1605.6000
722.25	1595.5500
722.57	1591.0000
722.89	1587.4500
723.21	1592.7500
723.52	1579.5500
723.84	1569.5000
724.16	1582.1500
724.48	1576.2000
724.80	1576.8000
725.12	1566.2000
725.44	1565.5500
725.76	1557.9500
726.08	1561.8000
726.40	1544.1500
726.72	1556.7000
727.03	1560.0000
727.35	1551.7500
727.67	1536.3000
727.99	1539.2500
728.31	1541.3500
728.63	1536.3000
728.95	1533.2000
729.26	1520.7500
729.58	1521.3000
729.90	1520.7500
730.22	1502.6500
730.54	1501.7500
730.86	1511.8500
731.17	1513.0500
731.49	1500.7000
731.81	1504.7500
732.13	1506.6500
732.45	1484.6500
732.76	1481.1500
733.08	1484.0000
733.40	1478.1500
733.72	1469.3500
734.03	1470.8500
734.35	1470.0500
734.67	1475.5000
734.99	1466.0500
735.30	1459.0500
735.62	1457.0500
735.94	1455.2500
736.26	1448.9500
736.57	1437.0000
736.89	1450.8000
737.21	1427.5000
737.53	1418.8000
737.84	1425.2000
738.16	1409.2000
738.48	1412.2000
738.79	1419.0000
739.11	1406.2500
739.43	1398.5500
739.74	1394.3000
740.06	1382.5500
740.38	1380.9000
740.69	1374.4000
741.01	1369.8500
741.33	1359.1500
741.64	1358.4000
741.96	1347.0000
742.28	1347.0500
742.59	1329.6500
742.91	1331.9500
743.23	1325.8500
743.54	1330.6000
743.86	1319.3000
744.17	1306.8000
744.49	1309.0500
744.81	1305.7000
745.12	1295.8000
745.44	1284.1500
745.75	1290.4500
746.07	1286.1000
746.38	1277.6000
746.70	1271.5500
747.02	1274.0000
747.33	1261.9500
747.65	1260.5500
747.96	1256.0000
748.28	1253.7500
748.59	1249.4000
748.91	1242.7000
749.22	1242.8000
749.54	1239.7500
749.85	1244.5500
750.17	1242.3500
750.48	1227.2000
750.80	1227.4500
751.11	1230.0500
751.43	1225.9500
751.74	1223.7000
752.06	1216.5500
752.37	1215.3000
752.69	1216.4500
753.00	1207.6000
753.32	1211.7500
753.63	1213.3000
753.95	1210.8500
754.26	1193.4500
754.58	1196.2500
754.89	1197.2500
755.20	1198.5000
755.52	1197.1500
755.83	1188.8500
756.15	1191.6000
756.46	1181.6500
756.78	1179.8500
757.09	1176.9500
757.40	1176.8000
757.72	1172.4500
758.03	1167.4000
758.34	1167.9500
758.66	1173.2000
758.97	1169.4500
759.29	1166.6000
759.60	1163.2000
759.91	1153.3500
760.23	1153.3000
760.54	1157.7500
760.85	1154.0500
761.17	1147.1000
761.48	1144.2000
761.79	1131.8500
762.11	1133.1500
762.42	1131.2000
762.73	1136.1000
763.05	1132.4500
763.36	1138.4500
763.67	1129.8000
763.98	1116.1000
764.30	1099.2500
764.61	1110.4000
764.92	1108.5500
765.23	1102.2000
765.55	1101.2000
765.86	1097.2500
766.17	1102.4000
766.48	1092.2500
766.80	1078.6500
767.11	1088.6500
767.42	1061.6500
767.73	1068.6000
768.05	1071.4500
768.36	1073.1000
768.67	1076.1500
768.98	1067.9500
769.29	1077.2000
769.61	1060.3000
769.92	1044.8500
770.23	1050.7500
770.54	1033.3000
770.85	1040.5000
771.17	1037.7500
771.48	1031.0500
771.79	1031.8500
772.10	1023.7000
772.41	1023.6500
772.72	1012.2000
773.03	1005.7500
773.35	1003.8500
773.66	993.1500
773.97	997.4000
774.28	990.5500
774.59	976.7000
774.90	985.6500
775.21	990.3000
775.52	982.3500
775.83	976.8000
776.15	967.2500
776.46	958.9000
776.77	954.0000
777.08	955.1000
777.39	957.4000
777.70	943.2000
778.01	945.9000
778.32	946.8000
778.63	947.5000
778.94	942.1500
779.25	932.7500
779.56	925.4000
779.87	920.9000
780.18	907.7500
780.49	907.4000
780.80	910.0500
781.11	902.5000
781.42	896.8500
781.73	894.9000
782.04	881.8000
782.35	877.0000
782.66	872.9000
782.97	873.5500
783.28	877.8000
783.59	867.5000
783.90	869.4500
784.21	861.6500
784.52	854.8500
784.83	852.6000
785.14	847.6000
785.45	842.7500
785.76	834.8500
786.06	833.9000
786.37	836.5500
786.68	826.6500
786.99	822.9500
787.30	826.4500
787.61	821.5500
787.92	813.5000
788.23	803.2500
788.54	813.4500
788.84	803.6000
789.15	803.3500
789.46	802.7500
789.77	789.7500
790.08	791.7500
790.39	777.5000
790.70	790.3000
791.00	785.1500
791.31	767.6000
791.62	775.3000
791.93	767.0500
792.24	770.5000
792.54	762.8500
792.85	751.5000
793.16	751.8000
793.47	748.0000
793.78	745.7500
794.08	740.8500
794.39	734.5000
794.70	740.1500
795.01	729.2500
795.31	728.4000
795.62	720.9000
795.93	722.2000
796.24	724.3500
796.54	711.8000
796.85	715.2000
797.16	704.2500
797.47	698.9000
797.77	701.3500
798.08	693.0500
798.39	697.7500
798.69	693.7500
799.00	689.4500
799.31	685.3500
799.62	681.1000
799.92	675.9500
800.23	675.0000
800.54	673.4500
800.84	667.4000
801.15	663.0500
801.46	664.1000
801.76	661.8500
802.07	650.2500
802.37	649.8500
802.68	645.2000
802.99	650.9500
803.29	642.8000
803.60	632.9500
803.91	627.0500
804.21	630.4000
804.52	633.4500
804.82	628.9000
805.13	630.3500
805.44	624.8500
805.74	620.1000
806.05	620.4000
806.35	612.6000
806.66	608.6000
806.96	610.6000
807.27	601.8500
807.57	602.4500
807.88	603.4000
808.19	596.3500
808.49	597.9000
808.80	586.9500
809.10	586.6000
809.41	587.9500
809.71	580.3500
810.02	582.9000
810.32	574.0000
810.63	575.4500
810.93	576.4000
811.24	572.3000
811.54	575.0500
811.85	570.0000
812.15	562.9500
812.45	563.4000
812.76	557.5000
813.06	554.9000
813.37	553.3000
813.67	555.4000
813.98	547.3500
814.28	540.1500
814.58	542.7500
814.89	539.2500
815.19	535.8500
815.50	532.3500
815.80	531.2000
816.11	524.8500
816.41	529.8500
816.71	528.8000
817.02	523.9000
817.32	522.1000
817.62	517.8500
817.93	519.2000
818.23	510.6500
818.53	511.1500
818.84	515.3000
819.14	506.1000
819.44	509.5000
819.75	503.7500
820.05	497.3000
820.35	494.8000
820.66	492.7500
820.96	496.5000
821.26	492.9000
821.57	492.7500
821.87	487.0000
822.17	488.8500
822.48	486.9000
822.78	483.5000
823.08	479.0500
823.38	479.6000
823.69	475.7500
823.99	476.2500
824.29	472.3000
824.59	465.7500
824.90	472.3000
825.20	467.0500
825.50	463.0000
825.80	459.6500
826.10	463.5000
826.41	457.9500
826.71	455.2500
827.01	456.1000
827.31	455.3500
827.61	453.4000
827.92	452.7000
828.22	450.8500
828.52	449.7500
828.82	447.0000
829.12	443.7500
829.42	441.4500
829.73	440.6000
830.03	439.4000
830.33	436.2000
830.63	431.7500
830.93	431.9500
831.23	428.4000
831.53	429.7000
831.83	425.4000
832.14	423.2500
832.44	423.2000
832.74	420.5500
833.04	420.5500
833.34	423.4000
833.64	417.9000
833.94	413.4500
834.24	417.2000
834.54	414.3000
834.84	411.8500
835.14	409.1000
835.44	407.7500
835.74	405.9500
836.04	404.3000
836.34	406.3500
836.64	403.7000
836.95	403.0000
837.25	397.1000
837.55	398.2500
837.85	397.5000
838.15	395.5500
838.45	394.5500
838.74	390.3000
839.04	386.6500
839.34	386.5000
839.64	379.9500
839.94	380.8500
840.24	380.0500
840.54	383.8000
840.84	384.8000
841.14	376.9000
841.44	379.5000
841.74	378.8500
842.04	373.6000
842.34	376.0000
842.64	370.4000
842.94	372.3000
843.24	370.9500
843.53	367.5500
843.83	367.0500
844.13	363.7000
844.43	363.0500
844.73	365.7000
845.03	360.5500
845.33	359.4500
845.63	359.2500
845.92	355.6000
846.22	355.5500
846.52	353.1000
846.82	352.1500
847.12	350.8500
847.42	348.5000
847.71	349.4500
848.01	347.6000
848.31	342.9000
848.61	344.9500
848.91	342.5500
849.20	341.4500
849.50	340.9000
849.80	339.2000
850.10	336.4000
850.39	334.1000
850.69	335.2500
850.99	333.9500
851.29	330.7500
851.59	330.0500
851.88	329.8500
852.18	330.0500
852.48	328.1000
852.77	323.1500
853.07	325.3500
853.37	322.7500
853.67	321.7000
853.96	320.3500
854.26	319.8000
854.56	318.2000
854.85	317.1000
855.15	313.8500
855.45	315.9500
855.74	312.1000
856.04	309.3500
856.34	310.9000
856.63	312.2000
856.93	307.1500
857.23	306.5000
857.52	302.2000
857.82	301.6000
858.11	303.5000
858.41	302.7500
858.71	299.2000
859.00	297.2500
859.30	299.4000
859.59	293.3000
859.89	293.6500
860.19	291.0000
860.48	290.1000
860.78	289.9500
861.07	289.9000
861.37	291.1500
861.66	288.6500
861.96	284.2500
862.26	284.4500
862.55	285.1000
862.85	281.7000
863.14	281.2500
863.44	277.1500
863.73	277.1500
864.03	276.9500
864.32	277.3000
864.62	275.5000
864.91	273.9500
865.21	271.3000
865.50	269.2500
865.80	269.5500
866.09	269.7500
866.39	267.6500
866.68	269.1500
866.97	263.5500
867.27	265.8500
867.56	258.9000
867.86	260.8500
868.15	257.0500
868.45	255.4000
868.74	255.0000
869.03	254.9000
869.33	256.6500
869.62	254.1000
869.92	252.6500
870.21	246.6500
870.50	249.5000
870.80	246.1000
871.09	246.6500
871.39	244.8500
871.68	244.6500
871.97	242.3500
872.27	242.4000
872.56	239.4500
872.85	240.3000
873.15	238.0000
873.44	234.8000
873.73	238.0000
874.03	233.3000
874.32	232.2500
874.61	231.7000
874.90	230.1500
875.20	229.5500
875.49	227.7500
875.78	227.0000
>>>>>End Spectral Data<<<<<
