OOIBase32 Version 1.0.0.8 Data File
++++++++++++++++++++++++++++++++++++
Date: Wednesday, January 23, 1980, 02:10:40
User: Valued Ocean Optics Customer
Spectrometer Serial Number: Unknown
Spectrometer Channel: Master
Integration Time (msec): 3
Spectra Averaged: 20
Boxcar Smoothing: 0
Correct for Electrical Dark: Disabled
Time Normalized: Disabled
Dual-beam Reference: Disabled
Reference Channel: Master
>>>>>Begin Spectral Data<<<<<
179.00	0.0000
179.38	0.0000
179.75	68.0000
180.13	67.9500
180.51	68.2000
180.88	69.1000
181.26	69.1000
181.64	69.7000
182.02	69.9500
182.39	70.0000
182.77	69.5500
183.15	69.5500
183.52	68.2000
183.90	69.3000
184.28	68.5000
184.65	68.7000
185.03	68.4500
185.41	68.6000
185.78	68.9500
186.16	69.2000
186.53	68.2000
186.91	70.1000
187.29	69.8000
187.66	68.1500
188.04	70.0000
188.42	73.1500
188.79	72.7000
189.17	74.3500
189.55	73.9500
189.92	73.6500
190.30	73.4500
190.67	73.6000
191.05	73.7500
191.43	74.5000
191.80	73.6000
192.18	73.2000
192.56	73.3500
192.93	73.1500
193.31	73.8500
193.68	74.5500
194.06	72.7500
194.44	73.1000
194.81	72.2000
195.19	74.4500
195.56	73.1500
195.94	74.9500
196.32	73.0000
196.69	73.4500
197.07	73.7500
197.44	74.2500
197.82	72.3000
198.19	73.1500
198.57	72.5500
198.95	74.2000
199.32	72.0000
199.70	73.7500
200.07	73.7500
200.45	74.8500
200.82	74.1500
201.20	73.5000
201.57	73.9000
201.95	74.2000
202.33	74.9500
202.70	74.8000
203.08	73.3500
203.45	75.5500
203.83	73.6500
204.20	74.0500
204.58	74.5000
204.95	74.1000
205.33	74.1000
205.70	73.2000
206.08	74.3500
206.45	74.0000
206.83	73.4000
207.20	75.0500
207.58	73.5500
207.95	73.5500
208.33	73.9500
208.70	74.9000
209.08	74.3500
209.45	73.8000
209.83	74.6000
210.20	74.5500
210.58	73.7500
210.95	74.8500
211.33	73.8500
211.70	74.5500
212.08	74.4000
212.45	74.1000
212.83	74.8500
213.20	74.1000
213.58	75.4000
213.95	74.2000
214.33	74.2500
214.70	73.9000
215.07	74.0000
215.45	73.2000
215.82	74.1000
216.20	74.0500
216.57	75.0500
216.95	74.5500
217.32	75.7000
217.70	74.6500
218.07	73.9500
218.44	74.3500
218.82	74.1500
219.19	74.1500
219.57	75.0000
219.94	74.4000
220.32	75.9500
220.69	73.4000
221.06	74.4000
221.44	74.0000
221.81	74.0000
222.19	74.9500
222.56	73.9500
222.93	73.8000
223.31	73.8000
223.68	74.2500
224.06	74.2000
224.43	74.2500
224.80	74.7000
225.18	74.4000
225.55	74.9500
225.92	75.0500
226.30	74.8500
226.67	75.0000
227.05	74.6500
227.42	74.6000
227.79	74.0000
228.17	74.1000
228.54	74.0000
228.91	74.8000
229.29	73.5500
229.66	74.1000
230.03	74.8000
230.41	74.4000
230.78	74.0500
231.15	74.7000
231.53	74.3500
231.90	74.9500
232.27	74.4000
232.65	74.5500
233.02	74.1500
233.39	74.7500
233.77	74.8500
234.14	74.8000
234.51	73.4000
234.89	74.7000
235.26	74.4500
235.63	74.3000
236.01	74.4500
236.38	74.6000
236.75	75.3000
237.12	74.5000
237.50	74.2000
237.87	74.5000
238.24	74.8500
238.62	75.0500
238.99	73.9500
239.36	75.3000
239.73	74.7500
240.11	74.6000
240.48	75.1500
240.85	74.5500
241.23	75.0500
241.60	74.7500
241.97	75.4000
242.34	74.4000
242.72	73.7500
243.09	74.7500
243.46	74.2500
243.83	75.1500
244.21	75.1000
244.58	75.5000
244.95	75.1000
245.32	74.7000
245.70	75.0500
246.07	75.1000
246.44	75.8500
246.81	75.5500
247.18	74.8500
247.56	75.9500
247.93	74.5500
248.30	75.0000
248.67	74.0000
249.04	74.1000
249.42	76.0500
249.79	75.5000
250.16	75.4000
250.53	76.3500
250.90	74.7500
251.28	75.8500
251.65	75.1000
252.02	74.7000
252.39	75.3000
252.76	75.9500
253.14	75.4000
253.51	75.8500
253.88	75.1500
254.25	74.8000
254.62	74.6000
254.99	74.6000
255.37	75.0000
255.74	74.7500
256.11	75.2000
256.48	75.4500
256.85	74.9000
257.22	75.4000
257.59	74.9000
257.97	75.3000
258.34	75.2500
258.71	74.4500
259.08	75.1500
259.45	75.4500
259.82	75.0500
260.19	76.0500
260.56	74.8500
260.94	74.8000
261.31	75.5000
261.68	75.8500
262.05	76.0000
262.42	75.5000
262.79	74.1500
263.16	75.4000
263.53	75.7000
263.90	75.3500
264.28	75.1000
264.65	75.7500
265.02	76.2000
265.39	75.5500
265.76	76.1500
266.13	74.4500
266.50	75.7500
266.87	75.2000
267.24	74.0500
267.61	74.9000
267.98	75.3500
268.35	74.1000
268.72	74.6500
269.09	74.7500
269.46	74.8500
269.84	75.3000
270.21	75.3500
270.58	76.4000
270.95	75.0000
271.32	74.2500
271.69	75.0000
272.06	74.7500
272.43	74.6000
272.80	75.7500
273.17	75.1000
273.54	75.0000
273.91	75.5500
274.28	74.4500
274.65	74.8500
275.02	75.3500
275.39	75.6000
275.76	75.5000
276.13	75.5500
276.50	76.1500
276.87	76.4000
277.24	76.5500
277.61	74.9500
277.98	75.8000
278.35	75.3500
278.72	75.1000
279.09	76.1500
279.46	75.3500
279.83	76.1000
280.20	75.5500
280.57	75.9000
280.94	75.9500
281.31	76.1000
281.67	75.7500
282.04	74.6000
282.41	74.7000
282.78	74.4000
283.15	75.5000
283.52	76.4500
283.89	76.0000
284.26	76.0000
284.63	74.7500
285.00	75.9500
285.37	75.2000
285.74	76.0000
286.11	74.7500
286.48	75.0500
286.85	76.0500
287.21	75.9000
287.58	75.8000
287.95	75.8000
288.32	75.3000
288.69	76.0000
289.06	77.4000
289.43	75.3000
289.80	76.6000
290.17	75.7000
290.54	75.7500
290.90	75.4000
291.27	74.9000
291.64	75.6500
292.01	76.6000
292.38	76.1000
292.75	74.6500
293.12	75.8500
293.48	75.3500
293.85	74.7500
294.22	75.4500
294.59	76.1500
294.96	75.8000
295.33	75.3000
295.70	75.7500
296.06	75.3000
296.43	76.5000
296.80	76.6500
297.17	76.4000
297.54	75.7000
297.91	76.3500
298.27	76.2000
298.64	76.5500
299.01	76.0000
299.38	77.3500
299.75	75.6000
300.11	76.5500
300.48	75.7500
300.85	75.6000
301.22	76.7000
301.59	76.0000
301.95	75.9500
302.32	75.0000
302.69	75.5500
303.06	75.9000
303.43	75.3000
303.79	76.3500
304.16	77.3000
304.53	76.1500
304.90	76.7500
305.26	77.2500
305.63	77.0500
306.00	76.2500
306.37	76.6000
306.73	76.8000
307.10	76.2500
307.47	76.8000
307.84	75.3000
308.20	76.3000
308.57	76.3500
308.94	76.4500
309.31	76.2000
309.67	77.4000
310.04	75.9000
310.41	76.7500
310.77	76.4000
311.14	75.3500
311.51	76.3000
311.88	76.6500
312.24	76.7000
312.61	76.2500
312.98	76.4500
313.34	75.7000
313.71	75.3500
314.08	76.6000
314.44	76.1000
314.81	76.3000
315.18	75.9000
315.55	76.0000
315.91	76.7000
316.28	76.7500
316.65	76.4500
317.01	76.6500
317.38	76.8500
317.75	76.9000
318.11	76.0500
318.48	77.1500
318.84	75.9500
319.21	76.9000
319.58	76.4000
319.94	77.1000
320.31	77.1500
320.68	76.1000
321.04	76.0000
321.41	76.7000
321.78	76.8000
322.14	77.1000
322.51	77.4500
322.87	78.5000
323.24	76.2000
323.61	77.9000
323.97	77.0500
324.34	77.1500
324.70	76.9000
325.07	77.2000
325.44	77.3000
325.80	77.7000
326.17	76.5000
326.53	77.5000
326.90	77.6500
327.27	78.0500
327.63	76.7500
328.00	76.9500
328.36	76.8000
328.73	77.1000
329.09	77.4000
329.46	77.9000
329.83	77.6500
330.19	77.7500
330.56	77.3500
330.92	77.1500
331.29	77.6500
331.65	78.0500
332.02	79.0500
332.38	78.1000
332.75	77.3500
333.11	78.3000
333.48	78.4500
333.84	78.9500
334.21	77.2000
334.58	78.0000
334.94	78.1000
335.31	78.6000
335.67	78.3000
336.04	78.1000
336.40	78.8500
336.77	78.1000
337.13	78.5500
337.50	78.3500
337.86	79.0000
338.22	79.0500
338.59	78.1000
338.95	78.9000
339.32	79.7500
339.68	78.0000
340.05	78.9500
340.41	78.5500
340.78	78.8500
341.14	79.4500
341.51	78.7500
341.87	79.4000
342.24	79.3500
342.60	79.4500
342.96	79.5000
343.33	79.6000
343.69	80.6000
344.06	79.8000
344.42	80.0500
344.79	79.2000
345.15	80.3500
345.51	80.4500
345.88	80.1000
346.24	80.3500
346.61	80.6500
346.97	80.1000
347.34	80.5500
347.70	81.0000
348.06	80.1500
348.43	80.5000
348.79	80.9500
349.16	81.0000
349.52	79.6500
349.88	81.4500
350.25	80.6500
350.61	80.0500
350.97	81.1000
351.34	81.7000
351.70	80.5000
352.07	80.6000
352.43	81.6000
352.79	82.4500
353.16	82.7000
353.52	82.3000
353.88	81.9000
354.25	81.7500
354.61	81.4000
354.97	81.6000
355.34	81.3000
355.70	82.7500
356.06	83.0500
356.43	83.7000
356.79	82.9500
357.15	82.4500
357.52	82.8500
357.88	83.0500
358.24	84.3500
358.60	83.4000
358.97	83.6500
359.33	84.8500
359.69	84.8500
360.06	84.9000
360.42	84.7000
360.78	85.6500
361.14	85.9000
361.51	87.2000
361.87	85.6000
362.23	85.4000
362.60	85.9000
362.96	86.3500
363.32	85.9500
363.68	87.3000
364.05	87.2500
364.41	88.4500
364.77	87.6000
365.13	88.1000
365.50	88.8000
365.86	89.5000
366.22	87.5500
366.58	89.1000
366.95	90.0500
367.31	89.7500
367.67	91.1500
368.03	90.4500
368.39	91.1500
368.76	91.3500
369.12	92.2000
369.48	92.4500
369.84	91.6500
370.20	94.1500
370.57	93.0000
370.93	94.3000
371.29	94.7500
371.65	94.4000
372.01	95.6000
372.38	95.4500
372.74	95.9500
373.10	96.5000
373.46	96.1000
373.82	97.4500
374.18	97.1000
374.55	97.2500
374.91	98.9000
375.27	98.7500
375.63	99.5000
375.99	99.4000
376.35	99.6000
376.71	100.3000
377.08	100.5000
377.44	101.5500
377.80	102.8000
378.16	102.8000
378.52	104.2500
378.88	104.1500
379.24	107.1000
379.60	107.3000
379.97	108.6000
380.33	109.1500
380.69	108.0000
381.05	109.9500
381.41	111.3000
381.77	110.2000
382.13	112.2500
382.49	114.2500
382.85	114.9000
383.21	116.5500
383.57	114.9500
383.94	117.3500
384.30	117.1500
384.66	119.6000
385.02	117.5500
385.38	120.6500
385.74	120.1500
386.10	123.2000
386.46	126.6000
386.82	125.4500
387.18	124.4000
387.54	127.0500
387.90	125.9500
388.26	129.4000
388.62	130.6500
388.98	129.9500
389.34	132.2000
389.70	132.7500
390.06	128.6500
390.42	130.2000
390.78	135.6000
391.14	138.8500
391.50	135.9000
391.86	140.8500
392.22	142.8000
392.58	141.3000
392.94	135.7500
393.30	142.0000
393.66	143.8500
394.02	146.3000
394.38	142.5500
394.74	146.7000
395.10	146.6500
395.46	154.0000
395.82	151.1000
396.18	150.1000
396.54	155.2000
396.90	159.0000
397.26	155.4000
397.62	157.6000
397.98	164.6000
398.34	157.6000
398.70	159.3000
399.05	154.8000
399.41	155.6000
399.77	162.0000
400.13	166.8000
400.49	167.6000
400.85	173.3000
401.21	165.0000
401.57	175.4000
401.93	175.1500
402.29	171.4500
402.65	176.1500
403.00	179.5000
403.36	185.6500
403.72	179.7000
404.08	190.1500
404.44	179.2000
404.80	184.1500
405.16	193.6000
405.52	197.4500
405.87	198.3500
406.23	200.4000
406.59	190.2000
406.95	191.7000
407.31	195.5000
407.67	196.9500
408.03	197.2500
408.38	208.4000
408.74	216.2500
409.10	217.7000
409.46	205.1500
409.82	215.8000
410.17	214.6500
410.53	208.0500
410.89	215.8500
411.25	202.4500
411.61	215.2000
411.97	224.8000
412.32	224.6000
412.68	231.8500
413.04	223.6500
413.40	204.7000
413.75	219.6500
414.11	226.8500
414.47	228.6000
414.83	242.2500
415.19	234.7500
415.54	223.3500
415.90	239.9500
416.26	236.0000
416.62	244.3000
416.97	231.5500
417.33	245.9000
417.69	245.6000
418.05	243.0000
418.40	235.2500
418.76	249.4500
419.12	260.8000
419.48	255.7000
419.83	269.5500
420.19	245.4500
420.55	252.9000
420.90	273.7000
421.26	259.2500
421.62	257.4000
421.98	275.5500
422.33	280.4000
422.69	283.4000
423.05	292.0000
423.40	266.0000
423.76	257.1500
424.12	287.0000
424.47	286.8500
424.83	284.4000
425.19	285.4000
425.54	278.1000
425.90	295.8000
426.26	307.7500
426.61	310.5000
426.97	272.1500
427.33	308.6000
427.68	307.2000
428.04	321.2000
428.40	337.7000
428.75	345.4000
429.11	317.9500
429.47	346.7000
429.82	342.7500
430.18	347.6500
430.53	332.1000
430.89	335.4000
431.25	344.8500
431.60	352.6000
431.96	348.5000
432.31	344.3500
432.67	368.1500
433.03	372.9000
433.38	359.1500
433.74	373.7000
434.09	362.9500
434.45	352.6500
434.81	354.6500
435.16	376.4000
435.52	357.3500
435.87	348.8500
436.23	353.7000
436.58	361.7000
436.94	383.6500
437.30	379.5000
437.65	402.7500
438.01	388.8500
438.36	396.9500
438.72	399.3000
439.07	385.8500
439.43	388.6000
439.78	419.5500
440.14	434.4000
440.49	403.9500
440.85	407.4000
441.20	424.3500
441.56	417.5000
441.91	452.9500
442.27	425.7500
442.62	427.8000
442.98	437.6000
443.33	428.5500
443.69	437.8000
444.04	422.4000
444.40	412.0000
444.75	455.3500
445.11	458.1500
445.46	472.7500
445.82	469.9500
446.17	440.3500
446.53	462.8500
446.88	507.7500
447.23	434.6000
447.59	444.4000
447.94	439.2000
448.30	477.2000
448.65	462.3500
449.01	487.4500
449.36	491.2000
449.72	530.8500
450.07	542.3500
450.42	530.5000
450.78	506.3500
451.13	530.9500
451.49	516.6000
451.84	491.8000
452.19	502.0500
452.55	538.0500
452.90	536.9500
453.26	567.7500
453.61	591.6500
453.96	500.2500
454.32	561.9500
454.67	568.5500
455.02	528.3000
455.38	552.3500
455.73	551.6500
456.09	597.1500
456.44	599.6500
456.79	585.9000
457.15	590.5000
457.50	558.2500
457.85	581.9000
458.21	575.3500
458.56	608.8500
458.91	596.3000
459.27	565.1000
459.62	581.3000
459.97	583.0000
460.32	605.0500
460.68	613.5500
461.03	606.3500
461.38	628.6000
461.74	685.4500
462.09	664.6500
462.44	640.1000
462.80	628.0500
463.15	629.9000
463.50	640.9500
463.85	687.9500
464.21	655.4500
464.56	695.6000
464.91	658.9000
465.26	676.1000
465.62	667.6000
465.97	712.6000
466.32	714.7000
466.67	714.6500
467.03	724.9500
467.38	735.3000
467.73	744.8000
468.08	759.6500
468.44	768.8500
468.79	772.3000
469.14	728.5500
469.49	771.3500
469.85	797.9000
470.20	863.9000
470.55	855.5500
470.90	863.7500
471.25	836.6500
471.61	861.4000
471.96	877.1500
472.31	893.7000
472.66	895.9500
473.01	926.0000
473.36	943.5000
473.72	927.6500
474.07	966.9000
474.42	980.0000
474.77	976.5000
475.12	1010.1000
475.47	1036.5500
475.83	1044.0500
476.18	1038.2500
476.53	1033.4000
476.88	1088.2500
477.23	1096.3500
477.58	1088.9000
477.93	1115.8500
478.28	1105.2000
478.64	1135.7500
478.99	1161.1000
479.34	1183.1500
479.69	1197.6500
480.04	1225.8000
480.39	1235.7500
480.74	1219.5500
481.09	1284.5500
481.44	1290.2500
481.79	1289.8500
482.15	1298.3000
482.50	1327.7000
482.85	1330.8000
483.20	1373.1000
483.55	1369.0500
483.90	1394.0500
484.25	1395.1000
484.60	1399.8500
484.95	1431.3500
485.30	1437.9500
485.65	1458.8500
486.00	1472.8500
486.35	1463.7500
486.70	1471.6500
487.05	1521.2500
487.40	1529.5000
487.75	1549.2000
488.10	1560.4500
488.45	1544.9000
488.80	1563.4000
489.15	1595.8000
489.50	1594.1500
489.85	1609.5000
490.20	1613.7000
490.55	1639.2000
490.90	1650.0000
491.25	1660.3500
491.60	1651.0500
491.95	1665.7000
492.30	1679.2500
492.65	1694.4500
493.00	1701.5500
493.35	1703.6500
493.70	1721.0500
494.05	1732.1500
494.40	1761.7500
494.75	1768.7000
495.10	1755.2500
495.45	1764.5000
495.80	1779.8500
496.15	1797.3000
496.50	1786.8000
496.84	1793.9000
497.19	1803.9500
497.54	1831.5000
497.89	1833.5000
498.24	1833.3000
498.59	1854.8000
498.94	1839.7500
499.29	1858.6000
499.64	1861.8500
499.99	1880.7500
500.33	1892.1500
500.68	1894.5500
501.03	1906.1000
501.38	1912.8500
501.73	1933.8000
502.08	1926.2000
502.43	1945.7000
502.77	1958.8500
503.12	1966.3000
503.47	1975.2500
503.82	1989.6500
504.17	2006.8000
504.52	2014.9000
504.86	2024.6500
505.21	2057.3501
505.56	2051.1001
505.91	2054.5500
506.26	2058.5000
506.61	2081.5000
506.95	2086.3000
507.30	2099.7500
507.65	2129.8999
508.00	2124.0000
508.35	2132.5000
508.69	2135.6499
509.04	2155.1001
509.39	2155.8501
509.74	2162.0000
510.08	2177.5000
510.43	2202.1001
510.78	2205.6001
511.13	2216.1499
511.47	2226.3000
511.82	2245.8501
512.17	2238.8999
512.52	2268.3000
512.86	2279.8999
513.21	2296.0000
513.56	2299.3999
513.91	2329.5500
514.25	2325.8501
514.60	2341.8501
514.95	2357.9500
515.30	2362.8501
515.64	2367.7500
515.99	2400.5000
516.34	2409.3999
516.68	2427.2500
517.03	2424.5500
517.38	2442.3999
517.72	2472.9500
518.07	2472.1499
518.42	2475.2500
518.76	2494.6001
519.11	2508.6001
519.46	2531.5000
519.80	2521.6001
520.15	2540.8501
520.50	2560.3000
520.84	2561.2000
521.19	2575.2000
521.54	2580.6001
521.88	2585.2500
522.23	2612.8000
522.58	2609.4500
522.92	2620.3999
523.27	2642.3999
523.61	2632.5000
523.96	2644.0000
524.31	2679.9500
524.65	2691.8999
525.00	2686.5500
525.34	2664.2500
525.69	2676.6499
526.04	2711.6499
526.38	2717.7500
526.73	2723.5500
527.07	2741.5000
527.42	2737.3000
527.76	2757.6001
528.11	2771.3000
528.46	2757.5500
528.80	2766.5500
529.15	2753.4500
529.49	2755.8501
529.84	2782.8000
530.18	2787.3000
530.53	2809.5500
530.87	2803.8501
531.22	2806.3999
531.56	2812.2500
531.91	2820.1001
532.25	2812.2000
532.60	2817.9500
532.94	2832.3999
533.29	2826.8999
533.63	2831.3999
533.98	2828.7500
534.32	2839.9500
534.67	2869.3999
535.01	2877.8000
535.36	2868.6499
535.70	2899.2500
536.05	2901.0000
536.39	2913.4500
536.74	2884.3501
537.08	2870.2000
537.43	2865.6001
537.77	2900.5000
538.12	2934.3999
538.46	2937.8999
538.80	2948.4500
539.15	2923.8501
539.49	2938.9500
539.84	2968.8501
540.18	2967.8501
540.53	2966.0500
540.87	2966.5500
541.21	2982.7500
541.56	2979.4500
541.90	3002.1001
542.25	2986.7500
542.59	2991.9500
542.93	3021.2000
543.28	3010.3999
543.62	3023.4500
543.97	3024.3999
544.31	3035.2000
544.65	3040.7500
545.00	3056.4500
545.34	3067.9500
545.68	3069.4500
546.03	3064.8000
546.37	3084.8999
546.71	3086.2000
547.06	3099.8501
547.40	3103.0000
547.74	3143.8000
548.09	3128.8000
548.43	3135.8000
548.77	3147.9500
549.12	3135.1499
549.46	3139.5000
549.80	3169.8501
550.15	3186.4500
550.49	3181.2500
550.83	3181.7500
551.17	3196.8000
551.52	3199.0000
551.86	3192.1499
552.20	3221.6001
552.55	3241.1499
552.89	3236.7500
553.23	3261.0500
553.57	3264.4500
553.92	3260.3999
554.26	3281.5000
554.60	3272.8999
554.94	3286.9500
555.29	3300.5500
555.63	3305.0000
555.97	3329.6499
556.31	3322.4500
556.66	3341.3000
557.00	3330.1499
557.34	3357.2500
557.68	3375.1001
558.02	3377.2000
558.37	3380.4500
558.71	3390.8501
559.05	3388.1001
559.39	3401.8999
559.73	3423.2500
560.08	3420.4500
560.42	3431.5000
560.76	3427.3000
561.10	3444.4500
561.44	3435.3501
561.78	3459.5500
562.13	3471.9500
562.47	3454.7500
562.81	3482.8501
563.15	3487.5000
563.49	3491.5500
563.83	3508.2000
564.17	3505.3999
564.52	3511.7000
564.86	3522.0000
565.20	3522.1499
565.54	3525.8000
565.88	3532.8999
566.22	3551.1499
566.56	3530.6499
566.90	3556.6001
567.24	3566.5500
567.59	3551.1499
567.93	3559.0500
568.27	3578.5000
568.61	3594.7000
568.95	3576.3501
569.29	3579.8999
569.63	3616.2000
569.97	3605.0000
570.31	3557.6001
570.65	3591.4500
570.99	3601.1499
571.33	3619.9500
571.67	3597.3000
572.01	3597.6001
572.35	3623.0500
572.69	3626.0000
573.03	3642.3000
573.37	3623.4500
573.71	3617.7000
574.05	3606.3000
574.39	3624.1499
574.73	3642.0500
575.07	3622.8999
575.41	3630.3501
575.75	3654.7000
576.09	3670.0500
576.43	3652.3999
576.77	3646.4500
577.11	3639.1001
577.45	3651.7500
577.79	3640.2500
578.13	3664.1001
578.47	3623.7500
578.81	3638.7000
579.15	3648.8501
579.49	3688.0500
579.83	3677.7000
580.17	3677.7000
580.51	3676.4500
580.85	3676.4500
581.19	3678.4500
581.53	3660.5000
581.87	3675.5000
582.20	3680.0000
582.54	3678.3000
582.88	3680.9500
583.22	3660.6001
583.56	3658.8501
583.90	3695.3501
584.24	3679.0500
584.58	3671.2500
584.92	3699.9500
585.25	3695.5000
585.59	3692.9500
585.93	3702.0000
586.27	3718.8999
586.61	3683.2500
586.95	3713.2500
587.29	3723.5500
587.62	3692.8000
587.96	3710.1001
588.30	3718.7500
588.64	3703.8000
588.98	3711.1499
589.31	3729.5500
589.65	3715.8999
589.99	3695.0500
590.33	3723.1001
590.67	3729.3999
591.01	3731.9500
591.34	3737.1001
591.68	3738.7000
592.02	3747.5500
592.36	3737.3000
592.69	3735.2000
593.03	3748.1499
593.37	3756.1001
593.71	3751.8501
594.04	3752.0000
594.38	3748.7000
594.72	3774.1499
595.06	3761.4500
595.39	3755.0500
595.73	3772.1001
596.07	3802.6001
596.41	3786.6001
596.74	3790.7500
597.08	3789.5500
597.42	3797.2500
597.76	3779.0500
598.09	3801.5000
598.43	3784.8999
598.77	3806.3999
599.10	3820.1001
599.44	3807.2500
599.78	3807.0500
600.11	3818.4500
600.45	3826.3999
600.79	3823.4500
601.12	3814.8999
601.46	3844.5000
601.80	3852.2000
602.13	3830.7000
602.47	3860.3501
602.81	3830.7500
603.14	3839.1499
603.48	3864.9500
603.82	3855.8999
604.15	3854.0500
604.49	3859.8000
604.82	3859.7000
605.16	3869.3501
605.50	3851.6499
605.83	3887.3501
606.17	3885.9500
606.50	3893.3000
606.84	3864.4500
607.18	3881.9500
607.51	3883.7000
607.85	3888.3999
608.18	3906.1499
608.52	3899.5500
608.86	3891.3000
609.19	3909.9500
609.53	3883.0000
609.86	3927.5500
610.20	3910.3501
610.53	3897.3000
610.87	3892.3000
611.20	3938.0000
611.54	3896.3000
611.87	3907.6001
612.21	3916.8999
612.54	3904.1001
612.88	3909.6001
613.21	3918.3000
613.55	3916.3999
613.88	3895.8999
614.22	3913.2500
614.55	3888.7000
614.89	3886.4500
615.22	3889.1499
615.56	3894.5500
615.89	3911.3501
616.23	3920.7000
616.56	3873.5000
616.90	3911.6499
617.23	3892.6001
617.57	3921.5000
617.90	3913.4500
618.24	3914.2500
618.57	3913.3999
618.90	3905.3999
619.24	3896.2500
619.57	3906.1001
619.91	3924.5500
620.24	3867.3999
620.58	3907.5500
620.91	3899.4500
621.24	3905.3501
621.58	3911.3999
621.91	3883.2000
622.25	3897.5000
622.58	3893.6001
622.91	3922.2000
623.25	3878.5000
623.58	3884.8000
623.91	3882.0000
624.25	3890.3000
624.58	3894.3000
624.92	3893.1001
625.25	3883.7500
625.58	3871.8000
625.92	3907.5000
626.25	3883.2000
626.58	3908.2000
626.92	3886.6001
627.25	3896.2000
627.58	3880.8999
627.91	3890.0000
628.25	3894.6001
628.58	3892.5000
628.91	3867.4500
629.25	3880.0000
629.58	3871.5500
629.91	3876.8501
630.25	3888.5500
630.58	3876.3501
630.91	3874.3999
631.24	3877.9500
631.58	3883.0000
631.91	3890.6001
632.24	3843.4500
632.57	3853.7500
632.91	3866.6001
633.24	3855.3501
633.57	3865.3501
633.90	3855.3000
634.24	3851.7000
634.57	3858.3999
634.90	3877.2000
635.23	3816.6001
635.56	3833.6001
635.90	3830.6001
636.23	3838.0000
636.56	3833.2500
636.89	3837.7500
637.22	3842.3999
637.56	3837.3501
637.89	3802.0000
638.22	3818.5000
638.55	3830.8000
638.88	3791.1001
639.21	3812.3000
639.55	3787.3999
639.88	3805.0000
640.21	3806.7500
640.54	3806.2000
640.87	3777.8501
641.20	3791.7000
641.53	3805.1499
641.87	3785.8999
642.20	3788.9500
642.53	3784.7000
642.86	3785.3501
643.19	3777.7500
643.52	3772.2500
643.85	3775.3999
644.18	3768.0500
644.51	3760.6499
644.84	3763.3999
645.18	3758.5500
645.51	3746.0500
645.84	3759.3501
646.17	3752.6001
646.50	3768.7000
646.83	3775.3000
647.16	3734.8999
647.49	3751.7500
647.82	3748.0500
648.15	3746.9500
648.48	3753.3000
648.81	3751.3000
649.14	3740.8000
649.47	3744.7500
649.80	3729.9500
650.13	3720.7500
650.46	3747.3999
650.79	3734.0000
651.12	3745.1499
651.45	3738.2000
651.78	3709.1499
652.11	3729.8999
652.44	3713.1499
652.77	3721.4500
653.10	3735.1001
653.43	3732.9500
653.76	3726.0500
654.09	3702.8000
654.42	3719.0000
654.75	3716.5000
655.08	3693.3000
655.41	3704.7500
655.74	3669.1499
656.07	3708.3000
656.39	3702.9500
656.72	3696.7500
657.05	3686.4500
657.38	3716.8999
657.71	3706.8999
658.04	3693.3999
658.37	3696.7000
658.70	3705.2500
659.03	3683.9500
659.36	3684.7000
659.68	3689.8501
660.01	3686.2500
660.34	3688.4500
660.67	3687.1499
661.00	3702.3000
661.33	3669.8501
661.66	3661.6001
661.98	3681.3501
662.31	3675.4500
662.64	3660.6001
662.97	3663.3000
663.30	3649.3999
663.63	3656.3999
663.95	3633.6001
664.28	3644.2500
664.61	3635.0500
664.94	3639.7500
665.27	3661.8999
665.59	3635.8501
665.92	3650.1001
666.25	3623.0500
666.58	3604.7500
666.91	3653.9500
667.23	3625.3501
667.56	3614.1499
667.89	3598.2000
668.22	3613.1499
668.54	3616.6001
668.87	3619.3999
669.20	3603.1001
669.53	3609.3501
669.85	3607.9500
670.18	3578.9500
670.51	3579.7500
670.83	3570.8501
671.16	3588.2000
671.49	3590.7000
671.82	3577.3999
672.14	3551.8999
672.47	3559.3000
672.80	3554.0500
673.12	3558.7000
673.45	3571.7500
673.78	3523.6001
674.10	3554.6001
674.43	3532.8999
674.76	3521.8999
675.08	3537.2500
675.41	3501.0500
675.74	3511.9500
676.06	3518.6499
676.39	3492.9500
676.72	3500.2500
677.04	3495.6499
677.37	3493.0000
677.69	3472.8000
678.02	3466.5500
678.35	3467.2000
678.67	3425.5500
679.00	3468.2500
679.32	3460.3000
679.65	3439.3999
679.98	3450.1001
680.30	3430.6499
680.63	3418.8000
680.95	3395.8999
681.28	3416.8000
681.60	3387.0500
681.93	3386.3000
682.26	3383.4500
682.58	3378.3999
682.91	3383.1001
683.23	3357.8501
683.56	3339.8000
683.88	3361.9500
684.21	3336.5000
684.53	3350.3000
684.86	3350.1499
685.18	3328.8999
685.51	3336.1001
685.83	3326.8000
686.16	3284.4500
686.48	3285.1001
686.81	3308.6001
687.13	3293.1001
687.46	3283.3999
687.78	3296.3999
688.11	3254.8000
688.43	3256.9500
688.76	3248.5500
689.08	3247.1001
689.41	3235.9500
689.73	3217.6001
690.05	3222.3000
690.38	3220.0000
690.70	3206.6001
691.03	3189.8999
691.35	3191.8999
691.68	3152.1001
692.00	3158.5500
692.32	3182.1001
692.65	3163.5000
692.97	3162.3501
693.29	3162.7000
693.62	3137.8501
693.94	3157.0500
694.27	3127.7000
694.59	3079.4500
694.91	3113.1001
695.24	3117.3999
695.56	3086.6499
695.88	3075.9500
696.21	3031.8999
696.53	3022.1499
696.85	3063.0000
697.18	3064.3501
697.50	3042.9500
697.82	3058.6001
698.15	3040.0000
698.47	3028.2500
698.79	3035.0000
699.12	3041.3000
699.44	2985.3000
699.76	2978.1499
700.09	2986.9500
700.41	2988.1499
700.73	2966.0000
701.05	2984.5000
701.38	2957.2500
701.70	2964.3000
702.02	2961.4500
702.34	2945.8501
702.67	2947.6499
702.99	2946.2500
703.31	2921.6499
703.63	2929.9500
703.96	2910.3999
704.28	2897.0500
704.60	2885.6001
704.92	2903.5000
705.25	2885.7500
705.57	2881.9500
705.89	2866.1001
706.21	2868.7000
706.53	2863.8999
706.86	2861.4500
707.18	2849.1001
707.50	2868.3999
707.82	2832.2000
708.14	2844.5000
708.46	2851.9500
708.79	2819.8000
709.11	2843.1499
709.43	2809.1499
709.75	2804.7500
710.07	2799.2000
710.39	2803.8000
710.71	2791.7500
711.04	2781.0000
711.36	2774.0500
711.68	2766.8000
712.00	2763.7000
712.32	2766.8501
712.64	2740.7500
712.96	2736.7000
713.28	2720.1001
713.60	2743.3501
713.92	2716.5000
714.24	2726.3000
714.57	2715.8999
714.89	2709.2000
715.21	2694.8000
715.53	2682.7000
715.85	2688.3501
716.17	2688.3501
716.49	2682.1001
716.81	2675.7500
717.13	2678.7000
717.45	2653.9500
717.77	2648.1499
718.09	2632.3501
718.41	2640.7500
718.73	2629.8501
719.05	2620.0500
719.37	2590.0500
719.69	2604.7500
720.01	2596.5000
720.33	2573.6499
720.65	2567.6499
720.97	2565.6001
721.29	2553.3000
721.61	2566.1499
721.93	2555.3999
722.25	2533.7500
722.57	2528.3000
722.89	2521.6001
723.21	2526.6001
723.52	2507.2500
723.84	2492.2500
724.16	2513.0000
724.48	2501.4500
724.80	2504.1001
725.12	2489.2500
725.44	2482.9500
725.76	2472.7000
726.08	2484.6499
726.40	2459.8999
726.72	2472.9500
727.03	2480.6001
727.35	2466.3000
727.67	2439.2500
727.99	2448.0000
728.31	2444.3999
728.63	2439.6001
728.95	2437.1001
729.26	2422.0500
729.58	2411.2500
729.90	2415.3501
730.22	2385.2000
730.54	2381.3501
730.86	2401.3000
731.17	2408.0500
731.49	2386.3000
731.81	2396.8999
732.13	2394.5000
732.45	2354.2000
732.76	2359.7500
733.08	2360.0500
733.40	2361.8501
733.72	2346.5000
734.03	2339.1001
734.35	2335.8999
734.67	2352.3000
734.99	2329.1001
735.30	2328.1001
735.62	2319.9500
735.94	2324.5500
736.26	2304.3999
736.57	2287.2000
736.89	2308.6001
737.21	2277.0000
737.53	2272.8501
737.84	2269.0500
738.16	2250.3501
738.48	2248.5500
738.79	2251.3501
739.11	2232.9500
739.43	2224.4500
739.74	2222.8501
740.06	2200.5500
740.38	2196.3999
740.69	2185.8501
741.01	2182.7000
741.33	2165.2500
741.64	2164.1499
741.96	2148.7500
742.28	2150.2500
742.59	2119.3501
742.91	2120.8000
743.23	2106.6001
743.54	2124.8000
743.86	2097.8000
744.17	2085.6001
744.49	2090.5500
744.81	2083.2500
745.12	2068.2000
745.44	2051.6499
745.75	2049.1499
746.07	2041.8500
746.38	2039.7500
746.70	2029.7000
747.02	2034.8500
747.33	2013.0500
747.65	2012.7000
747.96	2008.9000
748.28	2001.3000
748.59	1996.1500
748.91	1985.2000
749.22	1991.0000
749.54	1983.3500
749.85	1984.1500
750.17	1975.0000
750.48	1961.3000
750.80	1959.9500
751.11	1953.2000
751.43	1959.0500
751.74	1957.5000
752.06	1952.9500
752.37	1940.5500
752.69	1944.1000
753.00	1934.8500
753.32	1931.8000
753.63	1935.5000
753.95	1925.9000
754.26	1912.3500
754.58	1919.2500
754.89	1915.7000
755.20	1911.5500
755.52	1905.4000
755.83	1907.7000
756.15	1905.2000
756.46	1887.6000
756.78	1881.8000
757.09	1880.3500
757.40	1879.2000
757.72	1873.4500
758.03	1868.8500
758.34	1863.7000
758.66	1869.9500
758.97	1868.1500
759.29	1859.8500
759.60	1865.3000
759.91	1838.9500
760.23	1845.0000
760.54	1848.6500
760.85	1838.2500
761.17	1828.4500
761.48	1828.9500
761.79	1805.7500
762.11	1811.7000
762.42	1809.9500
762.73	1820.5000
763.05	1807.8000
763.36	1816.0500
763.67	1805.0000
763.98	1786.9000
764.30	1759.2500
764.61	1774.0500
764.92	1774.1500
765.23	1764.2500
765.55	1760.3000
765.86	1751.4500
766.17	1757.2000
766.48	1750.0000
766.80	1726.2000
767.11	1744.7500
767.42	1706.0000
767.73	1703.2500
768.05	1713.8000
768.36	1716.1000
768.67	1721.9000
768.98	1712.4000
769.29	1720.6000
769.61	1694.8000
769.92	1668.4500
770.23	1677.6000
770.54	1648.5500
770.85	1666.6000
771.17	1663.3500
771.48	1657.7000
771.79	1648.2500
772.10	1641.8500
772.41	1638.4500
772.72	1619.3000
773.03	1607.5000
773.35	1598.9000
773.66	1580.9000
773.97	1588.8500
774.28	1581.1000
774.59	1573.3500
774.90	1574.2000
775.21	1577.8500
775.52	1569.5000
775.83	1560.6000
776.15	1544.8000
776.46	1534.6500
776.77	1529.6500
777.08	1528.5000
777.39	1529.5500
777.70	1513.0000
778.01	1510.8000
778.32	1510.7000
778.63	1515.1000
778.94	1503.0500
779.25	1493.0500
779.56	1476.9000
779.87	1465.2500
780.18	1451.3000
780.49	1455.5500
780.80	1453.9500
781.11	1437.6500
781.42	1431.5500
781.73	1432.9500
782.04	1407.3500
782.35	1399.9500
782.66	1399.2000
782.97	1392.8500
783.28	1402.5000
783.59	1386.0000
783.90	1387.5000
784.21	1376.6500
784.52	1359.7500
784.83	1359.1500
785.14	1353.3000
785.45	1344.0000
785.76	1333.3500
786.06	1329.6500
786.37	1337.2500
786.68	1323.1500
786.99	1316.8500
787.30	1312.9000
787.61	1310.1500
787.92	1291.8000
788.23	1280.8000
788.54	1298.3000
788.84	1285.1000
789.15	1282.1500
789.46	1270.6000
789.77	1255.1500
790.08	1260.5500
790.39	1245.9500
790.70	1256.8500
791.00	1254.3000
791.31	1224.0000
791.62	1235.2000
791.93	1221.3500
792.24	1217.7500
792.54	1211.1000
792.85	1192.3000
793.16	1193.1500
793.47	1185.2500
793.78	1187.4000
794.08	1176.2000
794.39	1166.8500
794.70	1169.4000
795.01	1162.3500
795.31	1157.4000
795.62	1147.4500
795.93	1149.4500
796.24	1151.8000
796.54	1136.3500
796.85	1138.4000
797.16	1118.0000
797.47	1110.4500
797.77	1111.1000
798.08	1104.3000
798.39	1106.7000
798.69	1105.5000
799.00	1090.8500
799.31	1090.0000
799.62	1081.0000
799.92	1075.4000
800.23	1069.8500
800.54	1067.8000
800.84	1062.2000
801.15	1050.9500
801.46	1052.5000
801.76	1049.1500
802.07	1028.8000
802.37	1026.7500
802.68	1024.8000
802.99	1031.2000
803.29	1015.2000
803.60	1006.4500
803.91	995.3500
804.21	997.9000
804.52	1000.6000
804.82	990.0500
805.13	997.4500
805.44	984.8000
805.74	976.9000
806.05	982.7000
806.35	969.3500
806.66	958.9000
806.96	965.5500
807.27	952.1000
807.57	944.0500
807.88	945.0500
808.19	934.4000
808.49	937.4500
808.80	923.2500
809.10	920.1000
809.41	930.0000
809.71	915.1500
810.02	914.4000
810.32	905.6500
810.63	910.9000
810.93	906.3000
811.24	897.6000
811.54	899.3500
811.85	896.5500
812.15	883.8000
812.45	882.0000
812.76	875.6000
813.06	868.9500
813.37	866.8000
813.67	873.2500
813.98	861.7500
814.28	849.9000
814.58	850.5500
814.89	844.5000
815.19	842.6500
815.50	836.2000
815.80	833.0000
816.11	826.5500
816.41	828.5500
816.71	822.5500
817.02	820.8500
817.32	816.4000
817.62	809.1500
817.93	813.4000
818.23	799.4000
818.53	799.5500
818.84	807.3000
819.14	791.6000
819.44	792.4000
819.75	785.0000
820.05	779.0500
820.35	768.8000
820.66	763.8000
820.96	775.1000
821.26	767.8500
821.57	764.7500
821.87	756.3000
822.17	756.0500
822.48	758.8500
822.78	752.5000
823.08	745.3500
823.38	752.2000
823.69	738.7500
823.99	743.4000
824.29	733.8500
824.59	721.4000
824.90	734.1000
825.20	723.3500
825.50	719.2000
825.80	716.5000
826.10	722.0500
826.41	711.6500
826.71	705.5500
827.01	705.3500
827.31	709.0500
827.61	703.6000
827.92	701.7000
828.22	696.4500
828.52	694.9000
828.82	691.2500
829.12	682.9500
829.42	684.1500
829.73	681.6500
830.03	679.9500
830.33	673.6500
830.63	668.3000
830.93	670.3500
831.23	659.4500
831.53	663.7000
831.83	656.9500
832.14	653.3000
832.44	653.1500
832.74	646.8500
833.04	649.9500
833.34	649.3500
833.64	645.2500
833.94	636.2500
834.24	637.9500
834.54	640.4500
834.84	632.2000
835.14	627.7500
835.44	628.0500
835.74	627.6000
836.04	621.2500
836.34	621.9500
836.64	620.7000
836.95	619.6000
837.25	610.5500
837.55	611.1000
837.85	610.0000
838.15	610.5500
838.45	604.3000
838.74	597.7500
839.04	588.2500
839.34	594.8500
839.64	585.7500
839.94	585.5000
840.24	582.2500
840.54	590.0500
840.84	587.1500
841.14	582.1000
841.44	580.2000
841.74	577.0000
842.04	570.9500
842.34	571.8000
842.64	563.6000
842.94	568.8000
843.24	563.2000
843.53	562.3000
843.83	560.7000
844.13	555.9500
844.43	547.7000
844.73	552.6000
845.03	547.3500
845.33	546.1500
845.63	545.1500
845.92	538.1500
846.22	538.6000
846.52	534.7500
846.82	534.0500
847.12	529.6500
847.42	529.3500
847.71	526.7000
848.01	524.5000
848.31	521.2000
848.61	518.7000
848.91	519.4000
849.20	520.3500
849.50	514.6000
849.80	515.0000
850.10	510.2000
850.39	505.4000
850.69	506.1000
850.99	508.1500
851.29	502.2000
851.59	500.6000
851.88	496.0000
852.18	495.6500
852.48	496.1000
852.77	489.9000
853.07	490.9000
853.37	485.7500
853.67	484.4000
853.96	480.6500
854.26	481.2500
854.56	480.2000
854.85	477.5000
855.15	474.7500
855.45	471.4500
855.74	467.3000
856.04	465.5000
856.34	466.1500
856.63	465.2000
856.93	458.6000
857.23	460.5500
857.52	457.1500
857.82	451.2500
858.11	452.9000
858.41	450.5000
858.71	448.3500
859.00	445.9500
859.30	444.8500
859.59	440.2500
859.89	437.9500
860.19	433.1000
860.48	433.5500
860.78	434.8000
861.07	434.0500
861.37	429.7500
861.66	429.2500
861.96	425.0500
862.26	421.2000
862.55	418.0000
862.85	417.1000
863.14	415.2000
863.44	414.5000
863.73	413.2500
864.03	409.8500
864.32	408.5000
864.62	407.9500
864.91	404.3500
865.21	401.5000
865.50	398.3500
865.80	399.8500
866.09	399.6500
866.39	396.3000
866.68	396.2000
866.97	388.5000
867.27	386.4500
867.56	383.3000
867.86	383.2500
868.15	381.0500
868.45	376.6000
868.74	377.6000
869.03	376.3000
869.33	375.8500
869.62	370.9500
869.92	371.0000
870.21	362.2000
870.50	363.9000
870.80	360.7000
871.09	361.2000
871.39	358.4500
871.68	355.6000
871.97	351.4500
872.27	354.1000
872.56	349.7000
872.85	348.7000
873.15	344.5500
873.44	342.9500
873.73	341.7500
874.03	339.6500
874.32	336.9500
874.61	332.6500
874.90	332.5000
875.20	330.8500
875.49	329.5000
875.78	326.9500
>>>>>End Spectral Data<<<<<
